t,gx,gy,gz,ax,ay,az,mx,my,mz,px,py,pz,vx,vy,vz,tqw,tqx,tqy,tqz,tpx,tpy,tpz
1790767660.158674,0.000382,-0.000705,0.000601,-0.009811,-0.005586,9.808342,-0.020033,0.449940,-0.892834,0.000000,0.000000,0.000000,0.000000,0.000000,0.000000,1.000000,0.000000,0.000000,-0.000000,-0.000000,0.000000,-0.013000
1790767660.161016,-0.000916,0.001113,-0.000015,-0.008077,0.003735,9.801990,-0.020033,0.449940,-0.892834,0.000000,0.000000,0.000000,0.000000,0.000000,0.000000,1.000000,0.000000,0.000000,-0.000000,-0.000000,0.000000,-0.013000
1790767660.165826,-0.001046,0.000159,-0.000281,-0.009268,-0.006643,9.808905,-0.020305,0.449420,-0.893090,0.000000,0.000000,0.000000,0.000000,0.000000,0.000000,1.000000,0.000000,0.000000,-0.000000,-0.000000,0.000000,-0.013000
1790767660.167701,-0.001046,0.000159,-0.000281,-0.009268,-0.006643,9.808905,-0.020305,0.449420,-0.893090,0.000000,0.000000,0.000000,-0.000000,0.000000,0.000000,1.000000,0.000000,0.000000,-0.000000,-0.000000,0.000000,-0.013000
1790767660.170573,0.000474,0.001901,-0.001018,-0.002795,-0.003621,9.796615,-0.020305,0.449420,-0.893090,0.000000,0.000000,0.000000,-0.000000,0.000000,0.000000,1.000000,0.000000,0.000000,-0.000000,-0.000000,0.000000,-0.013000
1790767660.174770,-0.001130,0.001220,-0.001116,0.003786,0.004529,9.794871,-0.019878,0.449799,-0.892909,0.000000,0.000000,0.000000,-0.000000,0.000000,0.000000,1.000000,0.000000,0.000000,-0.000000,-0.000000,0.000000,-0.013000
1790767660.179034,-0.000968,0.000753,-0.000544,0.003285,-0.000026,9.801231,-0.019878,0.449799,-0.892909,0.000000,0.000000,0.000000,-0.000000,0.000000,0.000000,1.000000,0.000000,0.000000,-0.000000,-0.000000,0.000000,-0.013000
1790767660.182479,0.001035,-0.000458,0.000470,0.000932,0.000280,9.795598,-0.019878,0.449799,-0.892909,0.000000,0.000000,0.000000,-0.000000,0.000000,0.000000,1.000000,0.000000,0.000000,-0.000000,-0.000000,0.000000,-0.013000
1790767660.187230,-0.000730,-0.000231,0.000097,-0.003851,0.009697,9.784039,-0.020362,0.449415,-0.893091,0.000000,0.000000,0.000000,-0.000000,0.000000,0.000000,1.000000,0.000000,0.000000,-0.000000,-0.000000,0.000000,-0.013000
1790767660.190591,-0.001885,0.000255,-0.000003,-0.004304,0.009396,9.800126,-0.020362,0.449415,-0.893091,0.000000,0.000000,0.000000,-0.000000,0.000000,0.000000,1.000000,0.000000,0.000000,-0.000000,-0.000000,0.000000,-0.013000
1790767660.194824,-0.000074,-0.001117,0.000324,0.002781,0.001616,9.794021,-0.020564,0.449517,-0.893035,0.000000,0.000000,0.000000,-0.000000,0.000000,0.000000,1.000000,0.000000,0.000000,-0.000000,-0.000000,0.000000,-0.013000
1790767660.198954,-0.000198,0.000686,0.000961,0.010338,0.008741,9.804810,-0.020564,0.449517,-0.893035,0.000000,0.000000,0.000000,-0.000000,0.000000,0.000000,1.000000,0.000000,0.000000,-0.000000,-0.000000,0.000000,-0.013000
1790767660.202372,-0.000194,0.000581,0.001970,0.011293,0.002716,9.785572,-0.020564,0.449517,-0.893035,0.000000,0.000000,0.000000,-0.000000,0.000000,0.000000,1.000000,0.000000,0.000000,-0.000000,-0.000000,0.000000,-0.013000
1790767660.206542,-0.000963,0.000116,-0.001383,0.011365,0.009384,9.799755,-0.020090,0.449611,-0.892998,0.000000,0.000000,0.000000,-0.000000,0.000000,0.000000,1.000000,0.000000,0.000000,-0.000000,-0.000000,0.000000,-0.013000
1790767660.209596,-0.001393,-0.001049,0.000871,-0.011796,-0.002697,9.807341,-0.020090,0.449611,-0.892998,0.000000,0.000000,0.000000,-0.000000,0.000000,0.000000,1.000000,0.000000,0.000000,-0.000000,-0.000000,0.000000,-0.013000
1790767660.213491,-0.000756,0.000981,0.000409,-0.000759,0.010988,11.178508,-0.020218,0.449628,-0.892987,0.000000,0.000000,0.000000,-0.000000,0.000000,0.000000,1.000000,0.000000,0.000000,-0.000000,-0.000000,0.000000,-0.013000
1790767660.216971,0.000087,0.000410,-0.001185,0.012381,-0.006585,12.205436,-0.020218,0.449628,-0.892987,0.000000,0.000000,0.000000,-0.000000,0.000000,0.000000,1.000000,0.000000,0.000000,-0.000000,-0.000000,0.000000,-0.013000
1790767660.222850,-0.001567,-0.001191,0.000406,-0.002789,0.002099,12.991058,-0.020218,0.449628,-0.892987,0.000000,0.000000,0.000000,-0.000000,0.000000,0.000000,1.000000,0.000000,0.000000,-0.000000,-0.000000,0.000000,-0.013000
1790767660.225347,-0.002085,-0.002028,0.000946,0.002114,0.006950,13.571194,-0.019976,0.449583,-0.893015,0.000000,0.000000,0.000000,-0.000000,0.000000,0.000000,1.000000,-0.000011,-0.000007,0.000002,0.000003,-0.000005,-0.012634
1790767660.229328,-0.001920,-0.003192,0.000642,-0.004552,0.006076,13.990211,-0.019976,0.449583,-0.893015,0.000000,0.000000,0.000000,-0.000000,0.000000,0.000000,1.000000,-0.000011,-0.000007,0.000002,0.000003,-0.000005,-0.012634
1790767660.233265,-0.004435,-0.003062,-0.001649,0.001907,0.007382,14.307458,-0.020141,0.449783,-0.892911,-0.000000,0.000000,0.000917,-0.000013,0.000017,0.077904,1.000000,-0.000011,-0.000007,0.000002,0.000003,-0.000005,-0.012634
1790767660.237407,-0.001836,-0.002285,-0.000160,-0.003972,-0.000356,14.560710,-0.020141,0.449783,-0.892911,-0.000000,0.000000,0.000917,-0.000013,0.000017,0.077904,1.000000,-0.000011,-0.000007,0.000002,0.000003,-0.000005,-0.012634
1790767660.241798,-0.003201,-0.003218,0.002026,0.000908,0.009901,14.685436,-0.020141,0.449783,-0.892911,-0.000000,0.000000,0.000917,-0.000013,0.000017,0.077904,1.000000,-0.000011,-0.000007,0.000002,0.000003,-0.000005,-0.012634
1790767660.246035,-0.005106,-0.003630,0.002576,-0.009584,-0.000790,14.764132,-0.020147,0.449736,-0.892934,-0.000000,0.000000,0.000917,-0.000013,0.000017,0.077904,1.000000,-0.000045,-0.000033,0.000007,0.000016,-0.000021,-0.010684
1790767660.250244,-0.004233,-0.005664,0.001629,-0.009595,-0.009553,14.833880,-0.020147,0.449736,-0.892934,-0.000000,0.000000,0.000917,-0.000013,0.000017,0.077904,1.000000,-0.000045,-0.000033,0.000007,0.000016,-0.000021,-0.010684
1790767660.253999,-0.003591,-0.003262,0.000556,0.008660,-0.004369,14.876976,-0.019642,0.450064,-0.892780,-0.000000,0.000000,0.000917,-0.000013,0.000017,0.077904,1.000000,-0.000045,-0.000033,0.000007,0.000016,-0.000021,-0.010684
1790767660.258140,-0.003528,-0.004768,0.001031,-0.002917,0.001954,14.857667,-0.019642,0.450064,-0.892780,-0.000000,0.000000,0.000917,-0.000013,0.000017,0.077904,1.000000,-0.000045,-0.000033,0.000007,0.000016,-0.000021,-0.010684
1790767660.262599,-0.004430,-0.005854,0.002348,-0.003410,-0.002497,14.850521,-0.019642,0.450064,-0.892780,-0.000000,0.000000,0.000917,-0.000013,0.000017,0.077904,1.000000,-0.000045,-0.000033,0.000007,0.000016,-0.000021,-0.010684
1790767660.265436,-0.004818,-0.005751,-0.000421,0.001725,0.009756,14.834050,-0.019880,0.449920,-0.892847,-0.000001,0.000002,0.006253,-0.000043,0.000060,0.237219,1.000000,-0.000092,-0.000082,0.000014,0.000038,-0.000042,-0.006747
1790767660.269040,-0.004942,-0.007453,0.000253,0.019296,-0.001911,14.828761,-0.019880,0.449920,-0.892847,-0.000001,0.000002,0.006253,-0.000043,0.000060,0.237219,1.000000,-0.000092,-0.000082,0.000014,0.000038,-0.000042,-0.006747
1790767660.274172,-0.005500,-0.006140,0.001317,-0.001054,-0.002721,14.783601,-0.019877,0.449620,-0.892999,-0.000001,0.000002,0.006253,-0.000043,0.000060,0.237219,1.000000,-0.000092,-0.000082,0.000014,0.000038,-0.000042,-0.006747
1790767660.277673,-0.004923,-0.007840,0.000907,-0.008656,-0.008474,14.740237,-0.019877,0.449620,-0.892999,-0.000001,0.000002,0.006253,-0.000043,0.000060,0.237219,1.000000,-0.000092,-0.000082,0.000014,0.000038,-0.000042,-0.006747
1790767660.281556,-0.004626,-0.007927,0.000586,0.010599,-0.005292,14.704785,-0.019877,0.449620,-0.892999,-0.000001,0.000002,0.006253,-0.000043,0.000060,0.237219,1.000000,-0.000092,-0.000082,0.000014,0.000038,-0.000042,-0.006747
1790767660.285504,-0.004573,-0.007456,0.001832,0.000253,0.011394,14.689589,-0.019523,0.449849,-0.892891,-0.000001,0.000002,0.006253,-0.000043,0.000060,0.237219,1.000000,-0.000143,-0.000153,0.000021,0.000071,-0.000065,-0.000810
1790767660.290255,-0.004529,-0.008212,0.000935,-0.003518,0.007400,14.629056,-0.019523,0.449849,-0.892891,-0.000001,0.000002,0.006253,-0.000043,0.000060,0.237219,1.000000,-0.000143,-0.000153,0.000021,0.000071,-0.000065,-0.000810
1790767660.293694,-0.003737,-0.008329,-0.000272,0.008955,0.010595,14.575746,-0.020004,0.449838,-0.892886,-0.000001,0.000002,0.006253,-0.000043,0.000060,0.237219,1.000000,-0.000143,-0.000153,0.000021,0.000071,-0.000065,-0.000810
1790767660.297547,-0.004249,-0.010319,0.001262,0.005958,0.003510,14.537425,-0.020004,0.449838,-0.892886,-0.000004,0.000005,0.016685,-0.000157,0.000177,0.393558,1.000000,-0.000143,-0.000153,0.000021,0.000071,-0.000065,-0.000810
1790767660.301370,-0.004813,-0.010624,-0.001700,-0.003574,-0.002935,14.501478,-0.020004,0.449838,-0.892886,-0.000004,0.000005,0.016685,-0.000157,0.000177,0.393558,1.000000,-0.000143,-0.000153,0.000021,0.000071,-0.000065,-0.000810
1790767660.305607,-0.005337,-0.011041,0.000034,-0.001257,-0.000693,14.455133,-0.019538,0.449864,-0.892884,-0.000004,0.000005,0.016685,-0.000157,0.000177,0.393558,1.000000,-0.000196,-0.000249,0.000027,0.000114,-0.000087,0.007058
1790767660.309429,-0.005702,-0.011069,0.000296,0.004550,0.003680,14.388566,-0.019538,0.449864,-0.892884,-0.000004,0.000005,0.016685,-0.000157,0.000177,0.393558,1.000000,-0.000196,-0.000249,0.000027,0.000114,-0.000087,0.007058
1790767660.314476,-0.006522,-0.013057,0.001368,-0.006281,-0.000526,14.336857,-0.020028,0.450149,-0.892729,-0.000004,0.000005,0.016685,-0.000157,0.000177,0.393558,1.000000,-0.000196,-0.000249,0.000027,0.000114,-0.000087,0.007058
1790767660.317570,-0.005914,-0.010513,0.000647,0.004114,-0.010029,14.290474,-0.020028,0.450149,-0.892729,-0.000004,0.000005,0.016685,-0.000157,0.000177,0.393558,1.000000,-0.000196,-0.000249,0.000027,0.000114,-0.000087,0.007058
1790767660.322005,-0.005744,-0.011872,0.001487,0.013577,0.000962,14.230730,-0.020028,0.450149,-0.892729,-0.000004,0.000005,0.016685,-0.000157,0.000177,0.393558,1.000000,-0.000196,-0.000249,0.000027,0.000114,-0.000087,0.007058
1790767660.325624,-0.006028,-0.013122,0.000505,-0.010687,-0.001298,14.174185,-0.018978,0.449942,-0.892856,-0.000004,0.000005,0.016685,-0.000157,0.000177,0.393558,1.000000,-0.000252,-0.000367,0.000033,0.000164,-0.000108,0.016760
1790767660.329275,-0.006850,-0.014305,-0.000373,0.003547,0.001727,14.118934,-0.018978,0.449942,-0.892856,-0.000004,0.000005,0.016685,-0.000157,0.000177,0.393558,1.000000,-0.000252,-0.000367,0.000033,0.000164,-0.000108,0.016760
1790767660.333662,-0.005672,-0.013824,-0.000526,-0.004375,0.002925,14.081355,-0.019791,0.450233,-0.892692,-0.000015,0.000016,0.034131,-0.000451,0.000398,0.554910,1.000000,-0.000252,-0.000367,0.000033,0.000164,-0.000108,0.016760
1790767660.337243,-0.005966,-0.015312,0.000380,-0.001021,0.004103,14.007429,-0.019791,0.450233,-0.892692,-0.000015,0.000016,0.034131,-0.000451,0.000398,0.554910,1.000000,-0.000252,-0.000367,0.000033,0.000164,-0.000108,0.016760
1790767660.341804,-0.004210,-0.014431,0.000611,-0.002987,0.014165,13.962299,-0.019791,0.450233,-0.892692,-0.000015,0.000016,0.034131,-0.000451,0.000398,0.554910,1.000000,-0.000252,-0.000367,0.000033,0.000164,-0.000108,0.016760
1790767660.345423,-0.006492,-0.014963,-0.000101,-0.000721,0.001698,13.917943,-0.019395,0.450807,-0.892411,-0.000015,0.000016,0.034131,-0.000451,0.000398,0.554910,1.000000,-0.000309,-0.000505,0.000037,0.000221,-0.000127,0.028191
1790767660.349640,-0.006050,-0.013985,0.001309,0.004848,0.005059,13.880190,-0.019395,0.450807,-0.892411,-0.000015,0.000016,0.034131,-0.000451,0.000398,0.554910,1.000000,-0.000309,-0.000505,0.000037,0.000221,-0.000127,0.028191
1790767660.354364,-0.005118,-0.015729,0.000316,-0.000971,-0.009675,13.812359,-0.019442,0.450936,-0.892344,-0.000015,0.000016,0.034131,-0.000451,0.000398,0.554910,1.000000,-0.000309,-0.000505,0.000037,0.000221,-0.000127,0.028191
1790767660.357517,-0.006996,-0.015798,-0.001393,0.011305,-0.001871,13.743960,-0.019442,0.450936,-0.892344,-0.000015,0.000016,0.034131,-0.000451,0.000398,0.554910,1.000000,-0.000309,-0.000505,0.000037,0.000221,-0.000127,0.028191
1790767660.364561,-0.005592,-0.014557,-0.001029,-0.003390,-0.000601,13.659278,-0.019537,0.450480,-0.892573,-0.000037,0.000033,0.054248,-0.000903,0.000675,0.684107,1.000000,-0.000367,-0.000659,0.000038,0.000279,-0.000143,0.041248
1790767660.365828,-0.005592,-0.014557,-0.001029,-0.003390,-0.000601,13.659278,-0.019537,0.450480,-0.892573,-0.000037,0.000033,0.054248,-0.000903,0.000675,0.684107,1.000000,-0.000367,-0.000659,0.000038,0.000279,-0.000143,0.041248
1790767660.369270,-0.006870,-0.016458,0.000278,-0.000795,-0.001198,13.617515,-0.019537,0.450480,-0.892573,-0.000037,0.000033,0.054248,-0.000903,0.000675,0.684107,1.000000,-0.000367,-0.000659,0.000038,0.000279,-0.000143,0.041248
1790767660.374318,-0.004648,-0.017361,-0.000323,-0.003498,-0.003335,13.566476,-0.019478,0.450732,-0.892447,-0.000037,0.000033,0.054248,-0.000903,0.000675,0.684107,1.000000,-0.000367,-0.000659,0.000038,0.000279,-0.000143,0.041248
1790767660.377282,-0.005771,-0.016718,-0.000439,0.005621,-0.003413,13.549176,-0.019478,0.450732,-0.892447,-0.000037,0.000033,0.054248,-0.000903,0.000675,0.684107,1.000000,-0.000367,-0.000659,0.000038,0.000279,-0.000143,0.041248
1790767660.381027,-0.006064,-0.016395,-0.000956,0.004586,-0.009658,13.509120,-0.019478,0.450732,-0.892447,-0.000037,0.000033,0.054248,-0.000903,0.000675,0.684107,1.000000,-0.000367,-0.000659,0.000038,0.000279,-0.000143,0.041248
1790767660.385345,-0.005636,-0.017322,-0.000701,0.006571,-0.002693,13.495021,-0.019404,0.451251,-0.892186,-0.000037,0.000033,0.054248,-0.000903,0.000675,0.684107,1.000000,-0.000420,-0.000829,0.000036,0.000338,-0.000152,0.055836
1790767660.389195,-0.005228,-0.018400,-0.000958,0.006173,-0.002789,13.424055,-0.019404,0.451251,-0.892186,-0.000037,0.000033,0.054248,-0.000903,0.000675,0.684107,1.000000,-0.000420,-0.000829,0.000036,0.000338,-0.000152,0.055836
1790767660.393483,-0.004681,-0.018332,-0.001284,0.001300,0.001301,13.395539,-0.019039,0.451327,-0.892155,-0.000037,0.000033,0.054248,-0.000903,0.000675,0.684107,1.000000,-0.000420,-0.000829,0.000036,0.000338,-0.000152,0.055836
1790767660.397138,-0.004747,-0.017522,-0.001376,-0.002973,0.000114,13.351547,-0.019039,0.451327,-0.892155,-0.000077,0.000061,0.078292,-0.001566,0.001024,0.802218,1.000000,-0.000420,-0.000829,0.000036,0.000338,-0.000152,0.055836
1790767660.401086,-0.003614,-0.019158,-0.000115,-0.007129,-0.003907,13.325395,-0.019039,0.451327,-0.892155,-0.000077,0.000061,0.078292,-0.001566,0.001024,0.802218,1.000000,-0.000420,-0.000829,0.000036,0.000338,-0.000152,0.055836
1790767660.406547,-0.004793,-0.018466,-0.001034,0.002472,-0.004910,13.267737,-0.019359,0.451536,-0.892043,-0.000077,0.000061,0.078292,-0.001566,0.001024,0.802218,0.999999,-0.000463,-0.001008,0.000030,0.000393,-0.000152,0.071878
1790767660.409509,-0.004533,-0.018512,-0.000771,0.003427,-0.010518,13.227627,-0.019359,0.451536,-0.892043,-0.000077,0.000061,0.078292,-0.001566,0.001024,0.802218,0.999999,-0.000463,-0.001008,0.000030,0.000393,-0.000152,0.071878
1790767660.413141,-0.002800,-0.017946,-0.001179,0.002776,0.007165,13.187289,-0.019009,0.451175,-0.892233,-0.000077,0.000061,0.078292,-0.001566,0.001024,0.802218,0.999999,-0.000463,-0.001008,0.000030,0.000393,-0.000152,0.071878
1790767660.417606,-0.003385,-0.019159,-0.002045,0.004904,0.003166,13.154538,-0.019009,0.451175,-0.892233,-0.000077,0.000061,0.078292,-0.001566,0.001024,0.802218,0.999999,-0.000463,-0.001008,0.000030,0.000393,-0.000152,0.071878
1790767660.421845,-0.001870,-0.018473,-0.002064,0.005099,-0.002313,13.090886,-0.019009,0.451175,-0.892233,-0.000077,0.000061,0.078292,-0.001566,0.001024,0.802218,0.999999,-0.000463,-0.001008,0.000030,0.000393,-0.000152,0.071878
1790767660.426826,-0.002097,-0.018454,-0.000923,-0.005795,-0.002760,13.040600,-0.019140,0.451844,-0.891892,-0.000077,0.000061,0.078292,-0.001566,0.001024,0.802218,0.999999,-0.000495,-0.001196,0.000020,0.000441,-0.000142,0.089290
1790767660.429365,-0.002380,-0.019483,-0.001415,-0.008405,0.002769,12.990541,-0.019140,0.451844,-0.891892,-0.000143,0.000101,0.105928,-0.002454,0.001423,0.909722,0.999999,-0.000495,-0.001196,0.000020,0.000441,-0.000142,0.089290
1790767660.433328,-0.002783,-0.019470,-0.000792,0.011382,0.008396,12.952566,-0.019198,0.451832,-0.891897,-0.000143,0.000101,0.105928,-0.002454,0.001423,0.909722,0.999999,-0.000495,-0.001196,0.000020,0.000441,-0.000142,0.089290
1790767660.437770,-0.000519,-0.020867,-0.001885,-0.002238,-0.003004,12.894597,-0.019198,0.451832,-0.891897,-0.000143,0.000101,0.105928,-0.002454,0.001423,0.909722,0.999999,-0.000495,-0.001196,0.000020,0.000441,-0.000142,0.089290
1790767660.441470,-0.002542,-0.018929,-0.001766,0.003453,0.001241,12.863004,-0.019198,0.451832,-0.891897,-0.000143,0.000101,0.105928,-0.002454,0.001423,0.909722,0.999999,-0.000495,-0.001196,0.000020,0.000441,-0.000142,0.089290
1790767660.445544,-0.002939,-0.020275,0.000129,-0.003819,0.006703,12.838073,-0.019343,0.452155,-0.891730,-0.000143,0.000101,0.105928,-0.002454,0.001423,0.909722,0.999999,-0.000517,-0.001391,0.000004,0.000480,-0.000122,0.107981
1790767660.449064,-0.002166,-0.019716,-0.001879,-0.001712,-0.005731,12.768723,-0.019343,0.452155,-0.891730,-0.000143,0.000101,0.105928,-0.002454,0.001423,0.909722,0.999999,-0.000517,-0.001391,0.000004,0.000480,-0.000122,0.107981
1790767660.453857,-0.000774,-0.019739,-0.001191,-0.005144,0.004368,12.722759,-0.019332,0.452213,-0.891700,-0.000143,0.000101,0.105928,-0.002454,0.001423,0.909722,0.999999,-0.000517,-0.001391,0.000004,0.000480,-0.000122,0.107981
1790767660.457902,-0.001693,-0.019863,-0.001508,0.005582,0.007442,12.661334,-0.019332,0.452213,-0.891700,-0.000143,0.000101,0.105928,-0.002454,0.001423,0.909722,0.999999,-0.000517,-0.001391,0.000004,0.000480,-0.000122,0.107981
1790767660.461430,-0.001768,-0.020618,0.000096,-0.002105,-0.000774,12.635069,-0.019332,0.452213,-0.891700,-0.000143,0.000101,0.105928,-0.002454,0.001423,0.909722,0.999999,-0.000517,-0.001391,0.000004,0.000480,-0.000122,0.107981
1790767660.465441,-0.000518,-0.021539,-0.003213,0.003676,-0.000520,12.581226,-0.019218,0.452832,-0.891389,-0.000255,0.000162,0.140857,-0.003722,0.001896,1.016487,0.999999,-0.000529,-0.001592,-0.000018,0.000508,-0.000092,0.127858
1790767660.469542,0.000156,-0.020561,-0.002423,-0.000007,-0.008091,12.557936,-0.019218,0.452832,-0.891389,-0.000255,0.000162,0.140857,-0.003722,0.001896,1.016487,0.999999,-0.000529,-0.001592,-0.000018,0.000508,-0.000092,0.127858
1790767660.474335,-0.000256,-0.019773,-0.003620,-0.006452,0.004262,12.512116,-0.019103,0.452762,-0.891427,-0.000255,0.000162,0.140857,-0.003722,0.001896,1.016487,0.999999,-0.000529,-0.001592,-0.000018,0.000508,-0.000092,0.127858
1790767660.477342,0.000470,-0.020548,-0.002418,0.002114,0.007210,12.467865,-0.019103,0.452762,-0.891427,-0.000255,0.000162,0.140857,-0.003722,0.001896,1.016487,0.999999,-0.000529,-0.001592,-0.000018,0.000508,-0.000092,0.127858
1790767660.481035,0.000274,-0.021915,-0.002564,-0.004626,-0.000646,12.423647,-0.019103,0.452762,-0.891427,-0.000255,0.000162,0.140857,-0.003722,0.001896,1.016487,0.999999,-0.000529,-0.001592,-0.000018,0.000508,-0.000092,0.127858
1790767660.485489,0.000892,-0.021564,-0.003342,-0.001925,0.004420,12.395142,-0.019055,0.452809,-0.891404,-0.000255,0.000162,0.140857,-0.003722,0.001896,1.016487,0.999998,-0.000527,-0.001802,-0.000047,0.000525,-0.000050,0.148834
1790767660.489954,0.001678,-0.020254,-0.004064,0.001120,0.004406,12.365037,-0.019055,0.452809,-0.891404,-0.000255,0.000162,0.140857,-0.003722,0.001896,1.016487,0.999998,-0.000527,-0.001802,-0.000047,0.000525,-0.000050,0.148834
1790767660.493435,0.002315,-0.021622,-0.003906,0.011573,-0.006900,12.342732,-0.019183,0.452819,-0.891396,-0.000255,0.000162,0.140857,-0.003722,0.001896,1.016487,0.999998,-0.000527,-0.001802,-0.000047,0.000525,-0.000050,0.148834
1790767660.498696,0.001585,-0.020768,-0.004504,0.008497,0.004575,12.269718,-0.019183,0.452819,-0.891396,-0.000398,0.000230,0.174914,-0.005093,0.002316,1.100069,0.999998,-0.000527,-0.001802,-0.000047,0.000525,-0.000050,0.148834
1790767660.502388,0.002051,-0.021414,-0.002667,-0.001910,0.005208,12.231694,-0.019183,0.452819,-0.891396,-0.000398,0.000230,0.174914,-0.005093,0.002316,1.100069,0.999998,-0.000527,-0.001802,-0.000047,0.000525,-0.000050,0.148834
1790767660.507744,0.003288,-0.021862,-0.002485,0.004820,0.000021,12.186269,-0.019046,0.453352,-0.891128,-0.000398,0.000230,0.174914,-0.005093,0.002316,1.100069,0.999998,-0.000510,-0.002016,-0.000081,0.000526,0.000004,0.170832
1790767660.509542,0.004435,-0.021984,-0.005299,-0.005337,0.009672,12.162557,-0.019046,0.453352,-0.891128,-0.000398,0.000230,0.174914,-0.005093,0.002316,1.100069,0.999998,-0.000510,-0.002016,-0.000081,0.000526,0.000004,0.170832
1790767660.513964,0.003032,-0.022851,-0.004311,0.003127,0.002005,12.118969,-0.019261,0.453530,-0.891033,-0.000398,0.000230,0.174914,-0.005093,0.002316,1.100069,0.999998,-0.000510,-0.002016,-0.000081,0.000526,0.000004,0.170832
1790767660.517207,0.003754,-0.022746,-0.003575,0.004927,0.009559,12.092304,-0.019261,0.453530,-0.891033,-0.000398,0.000230,0.174914,-0.005093,0.002316,1.100069,0.999998,-0.000510,-0.002016,-0.000081,0.000526,0.000004,0.170832
1790767660.521257,0.004720,-0.021330,-0.004395,0.004795,-0.001095,12.052391,-0.019261,0.453530,-0.891033,-0.000398,0.000230,0.174914,-0.005093,0.002316,1.100069,0.999998,-0.000510,-0.002016,-0.000081,0.000526,0.000004,0.170832
1790767660.525772,0.004380,-0.022441,-0.004520,-0.006520,-0.002667,12.037032,-0.019310,0.453683,-0.890954,-0.000398,0.000230,0.174914,-0.005093,0.002316,1.100069,0.999997,-0.000476,-0.002237,-0.000122,0.000510,0.000072,0.193776
1790767660.529606,0.003943,-0.020718,-0.006700,0.001314,0.000142,11.974884,-0.019310,0.453683,-0.890954,-0.000589,0.000311,0.211470,-0.006695,0.002703,1.173956,0.999997,-0.000476,-0.002237,-0.000122,0.000510,0.000072,0.193776
1790767660.533682,0.005808,-0.021498,-0.004004,0.009116,0.005933,11.936642,-0.019496,0.453905,-0.890837,-0.000589,0.000311,0.211470,-0.006695,0.002703,1.173956,0.999997,-0.000476,-0.002237,-0.000122,0.000510,0.000072,0.193776
1790767660.538715,0.005754,-0.021290,-0.004463,0.004771,-0.016804,11.888606,-0.019496,0.453905,-0.890837,-0.000589,0.000311,0.211470,-0.006695,0.002703,1.173956,0.999997,-0.000476,-0.002237,-0.000122,0.000510,0.000072,0.193776
1790767660.541695,0.004948,-0.021163,-0.004264,-0.008294,0.004856,11.879105,-0.019496,0.453905,-0.890837,-0.000589,0.000311,0.211470,-0.006695,0.002703,1.173956,0.999997,-0.000476,-0.002237,-0.000122,0.000510,0.000072,0.193776
1790767660.545386,0.005300,-0.023183,-0.005850,0.003342,-0.007247,11.846413,-0.019609,0.453954,-0.890810,-0.000589,0.000311,0.211470,-0.006695,0.002703,1.173956,0.999997,-0.000425,-0.002460,-0.000170,0.000475,0.000152,0.217591
1790767660.549277,0.006719,-0.023125,-0.004724,-0.006972,-0.003534,11.795819,-0.019609,0.453954,-0.890810,-0.000589,0.000311,0.211470,-0.006695,0.002703,1.173956,0.999997,-0.000425,-0.002460,-0.000170,0.000475,0.000152,0.217591
1790767660.553507,0.006689,-0.023270,-0.006138,-0.007778,-0.008088,11.751479,-0.019413,0.454029,-0.890775,-0.000589,0.000311,0.211470,-0.006695,0.002703,1.173956,0.999997,-0.000425,-0.002460,-0.000170,0.000475,0.000152,0.217591
1790767660.557302,0.006940,-0.023351,-0.006356,0.008189,0.009639,11.737282,-0.019413,0.454029,-0.890775,-0.000589,0.000311,0.211470,-0.006695,0.002703,1.173956,0.999997,-0.000425,-0.002460,-0.000170,0.000475,0.000152,0.217591
1790767660.561523,0.007490,-0.022374,-0.004590,-0.007636,-0.005984,11.693931,-0.019413,0.454029,-0.890775,-0.000834,0.000404,0.250217,-0.008524,0.003028,1.238275,0.999997,-0.000425,-0.002460,-0.000170,0.000475,0.000152,0.217591
1790767660.566175,0.007925,-0.023550,-0.005784,-0.002131,0.008154,11.633365,-0.019797,0.454505,-0.890524,-0.000834,0.000404,0.250217,-0.008524,0.003028,1.238275,0.999996,-0.000354,-0.002689,-0.000224,0.000419,0.000246,0.242202
1790767660.569168,0.008849,-0.022207,-0.006328,0.002890,-0.010978,11.603294,-0.019797,0.454505,-0.890524,-0.000834,0.000404,0.250217,-0.008524,0.003028,1.238275,0.999996,-0.000354,-0.002689,-0.000224,0.000419,0.000246,0.242202
1790767660.574013,0.008794,-0.023638,-0.005699,0.015768,-0.000473,11.574724,-0.019960,0.454941,-0.890298,-0.000834,0.000404,0.250217,-0.008524,0.003028,1.238275,0.999996,-0.000354,-0.002689,-0.000224,0.000419,0.000246,0.242202
1790767660.577245,0.009618,-0.021512,-0.005354,0.004091,0.007813,11.530388,-0.019960,0.454941,-0.890298,-0.000834,0.000404,0.250217,-0.008524,0.003028,1.238275,0.999996,-0.000354,-0.002689,-0.000224,0.000419,0.000246,0.242202
1790767660.581277,0.009063,-0.022461,-0.006458,0.008569,0.006791,11.501187,-0.019960,0.454941,-0.890298,-0.000834,0.000404,0.250217,-0.008524,0.003028,1.238275,0.999996,-0.000354,-0.002689,-0.000224,0.000419,0.000246,0.242202
1790767660.586360,0.010352,-0.020171,-0.006367,0.004235,-0.002832,11.483115,-0.020014,0.455068,-0.890232,-0.000834,0.000404,0.250217,-0.008524,0.003028,1.238275,0.999996,-0.000260,-0.002911,-0.000291,0.000335,0.000354,0.267537
1790767660.589278,0.010604,-0.021099,-0.006901,-0.001587,-0.004050,11.462572,-0.020014,0.455068,-0.890232,-0.000834,0.000404,0.250217,-0.008524,0.003028,1.238275,0.999996,-0.000260,-0.002911,-0.000291,0.000335,0.000354,0.267537
1790767660.594084,0.011294,-0.021734,-0.009237,-0.004392,0.002606,11.430682,-0.020090,0.454924,-0.890303,-0.000834,0.000404,0.250217,-0.008524,0.003028,1.238275,0.999996,-0.000260,-0.002911,-0.000291,0.000335,0.000354,0.267537
1790767660.597510,0.009872,-0.019762,-0.007614,0.005018,-0.002244,11.386297,-0.020090,0.454924,-0.890303,-0.001186,0.000518,0.296054,-0.010850,0.003273,1.299826,0.999996,-0.000260,-0.002911,-0.000291,0.000335,0.000354,0.267537
1790767660.601342,0.011746,-0.017478,-0.009188,0.005501,-0.001798,11.355139,-0.020090,0.454924,-0.890303,-0.001186,0.000518,0.296054,-0.010850,0.003273,1.299826,0.999996,-0.000260,-0.002911,-0.000291,0.000335,0.000354,0.267537
1790767660.606053,0.012664,-0.017719,-0.009473,-0.000673,-0.000040,11.322505,-0.020261,0.454876,-0.890325,-0.001186,0.000518,0.296054,-0.010850,0.003273,1.299826,0.999995,-0.000147,-0.003108,-0.000374,0.000212,0.000473,0.293531
1790767660.609379,0.012706,-0.018131,-0.009010,0.009719,-0.000831,11.292393,-0.020261,0.454876,-0.890325,-0.001186,0.000518,0.296054,-0.010850,0.003273,1.299826,0.999995,-0.000147,-0.003108,-0.000374,0.000212,0.000473,0.293531
1790767660.613663,0.012000,-0.016541,-0.009398,0.002933,-0.001934,11.257569,-0.020086,0.455204,-0.890160,-0.001186,0.000518,0.296054,-0.010850,0.003273,1.299826,0.999995,-0.000147,-0.003108,-0.000374,0.000212,0.000473,0.293531
1790767660.616764,0.012544,-0.018044,-0.010760,-0.001973,0.008374,11.224965,-0.020086,0.455204,-0.890160,-0.001186,0.000518,0.296054,-0.010850,0.003273,1.299826,0.999995,-0.000147,-0.003108,-0.000374,0.000212,0.000473,0.293531
1790767660.621001,0.011715,-0.016600,-0.009520,0.003416,0.010755,11.203719,-0.020086,0.455204,-0.890160,-0.001186,0.000518,0.296054,-0.010850,0.003273,1.299826,0.999995,-0.000147,-0.003108,-0.000374,0.000212,0.000473,0.293531
1790767660.625415,0.016309,-0.014621,-0.011084,0.003983,0.002449,11.161791,-0.020182,0.455376,-0.890071,-0.001186,0.000518,0.296054,-0.010850,0.003273,1.299826,0.999995,-0.000015,-0.003272,-0.000472,0.000046,0.000603,0.320120
1790767660.629133,0.015989,-0.014690,-0.011507,0.008457,0.009597,11.155578,-0.020182,0.455376,-0.890071,-0.001572,0.000625,0.338500,-0.013112,0.003348,1.346045,0.999995,-0.000015,-0.003272,-0.000472,0.000046,0.000603,0.320120
1790767660.633259,0.015075,-0.014523,-0.011194,0.002465,0.000118,11.131876,-0.020430,0.455421,-0.890042,-0.001572,0.000625,0.338500,-0.013112,0.003348,1.346045,0.999995,-0.000015,-0.003272,-0.000472,0.000046,0.000603,0.320120
1790767660.637457,0.015380,-0.014106,-0.011804,-0.003104,-0.012753,11.110982,-0.020430,0.455421,-0.890042,-0.001572,0.000625,0.338500,-0.013112,0.003348,1.346045,0.999995,-0.000015,-0.003272,-0.000472,0.000046,0.000603,0.320120
1790767660.641294,0.015398,-0.012042,-0.011043,-0.002619,-0.006477,11.084721,-0.020430,0.455421,-0.890042,-0.001572,0.000625,0.338500,-0.013112,0.003348,1.346045,0.999995,-0.000015,-0.003272,-0.000472,0.000046,0.000603,0.320120
1790767660.645230,0.016215,-0.012910,-0.011099,-0.003713,0.020243,11.037482,-0.020963,0.455521,-0.889978,-0.001572,0.000625,0.338500,-0.013112,0.003348,1.346045,0.999994,0.000135,-0.003407,-0.000586,-0.000163,0.000742,0.347251
1790767660.648732,0.015828,-0.009926,-0.013124,0.000253,0.003015,10.985711,-0.020963,0.455521,-0.889978,-0.001572,0.000625,0.338500,-0.013112,0.003348,1.346045,0.999994,0.000135,-0.003407,-0.000586,-0.000163,0.000742,0.347251
1790767660.653009,0.016302,-0.010613,-0.013480,-0.008314,-0.010229,10.968987,-0.021136,0.455778,-0.889843,-0.001572,0.000625,0.338500,-0.013112,0.003348,1.346045,0.999994,0.000135,-0.003407,-0.000586,-0.000163,0.000742,0.347251
1790767660.659443,0.018054,-0.011937,-0.013782,-0.001165,-0.003077,10.954004,-0.021136,0.455778,-0.889843,-0.001572,0.000625,0.338500,-0.013112,0.003348,1.346045,0.999994,0.000135,-0.003407,-0.000586,-0.000163,0.000742,0.347251
1790767660.661254,0.017830,-0.011068,-0.013490,0.005787,-0.003359,10.942336,-0.021136,0.455778,-0.889843,-0.002033,0.000731,0.382301,-0.015490,0.003258,1.385372,0.999994,0.000135,-0.003407,-0.000586,-0.000163,0.000742,0.347251
1790767660.665146,0.017560,-0.010022,-0.014755,0.005547,0.009002,10.910279,-0.021537,0.456039,-0.889699,-0.002033,0.000731,0.382301,-0.015490,0.003258,1.385372,0.999993,0.000305,-0.003521,-0.000713,-0.000412,0.000889,0.374866
1790767660.668961,0.018598,-0.011442,-0.014905,0.003935,0.002121,10.898856,-0.021537,0.456039,-0.889699,-0.002033,0.000731,0.382301,-0.015490,0.003258,1.385372,0.999993,0.000305,-0.003521,-0.000713,-0.000412,0.000889,0.374866
1790767660.673535,0.018544,-0.011565,-0.013837,0.004264,-0.004162,10.848846,-0.021822,0.455981,-0.889722,-0.002033,0.000731,0.382301,-0.015490,0.003258,1.385372,0.999993,0.000305,-0.003521,-0.000713,-0.000412,0.000889,0.374866
1790767660.677168,0.019026,-0.010462,-0.015033,0.004534,-0.005428,10.819334,-0.021822,0.455981,-0.889722,-0.002033,0.000731,0.382301,-0.015490,0.003258,1.385372,0.999993,0.000305,-0.003521,-0.000713,-0.000412,0.000889,0.374866
1790767660.681131,0.020494,-0.009168,-0.015142,-0.015118,-0.008627,10.788651,-0.021822,0.455981,-0.889722,-0.002033,0.000731,0.382301,-0.015490,0.003258,1.385372,0.999993,0.000305,-0.003521,-0.000713,-0.000412,0.000889,0.374866
1790767660.689821,0.021323,-0.009011,-0.013945,0.005887,0.003903,10.741874,-0.021623,0.456246,-0.889591,-0.002033,0.000731,0.382301,-0.015490,0.003258,1.385372,0.999993,0.000495,-0.003623,-0.000850,-0.000697,0.001043,0.402913
1790767660.691908,0.021323,-0.009011,-0.013945,0.005887,0.003903,10.741874,-0.021623,0.456246,-0.889591,-0.002033,0.000731,0.382301,-0.015490,0.003258,1.385372,0.999993,0.000495,-0.003623,-0.000850,-0.000697,0.001043,0.402913
1790767660.693440,0.020744,-0.010047,-0.014436,0.005946,0.002557,10.707611,-0.022243,0.456102,-0.889649,-0.002571,0.000830,0.427233,-0.017935,0.002978,1.417630,0.999993,0.000495,-0.003623,-0.000850,-0.000697,0.001043,0.402913
1790767660.697160,0.019870,-0.007733,-0.014724,-0.007060,-0.006305,10.699335,-0.022243,0.456102,-0.889649,-0.002571,0.000830,0.427233,-0.017935,0.002978,1.417630,0.999993,0.000495,-0.003623,-0.000850,-0.000697,0.001043,0.402913
1790767660.701784,0.021995,-0.009588,-0.014433,0.001928,0.011980,10.671873,-0.022243,0.456102,-0.889649,-0.002571,0.000830,0.427233,-0.017935,0.002978,1.417630,0.999993,0.000495,-0.003623,-0.000850,-0.000697,0.001043,0.402913
1790767660.706811,0.020348,-0.009910,-0.015450,-0.006647,0.010053,10.635837,-0.021906,0.456047,-0.889686,-0.002571,0.000830,0.427233,-0.017935,0.002978,1.417630,0.999992,0.000706,-0.003718,-0.000994,-0.001016,0.001202,0.431336
1790767660.709329,0.022206,-0.011020,-0.015242,0.004814,0.004140,10.606722,-0.021906,0.456047,-0.889686,-0.002571,0.000830,0.427233,-0.017935,0.002978,1.417630,0.999992,0.000706,-0.003718,-0.000994,-0.001016,0.001202,0.431336
1790767660.713588,0.022390,-0.008485,-0.015632,-0.000823,-0.004002,10.578704,-0.022339,0.456151,-0.889622,-0.002571,0.000830,0.427233,-0.017935,0.002978,1.417630,0.999992,0.000706,-0.003718,-0.000994,-0.001016,0.001202,0.431336
1790767660.718011,0.023416,-0.009800,-0.015399,0.007064,0.002657,10.560228,-0.022339,0.456151,-0.889622,-0.002571,0.000830,0.427233,-0.017935,0.002978,1.417630,0.999992,0.000706,-0.003718,-0.000994,-0.001016,0.001202,0.431336
1790767660.721277,0.025707,-0.007830,-0.016496,-0.007226,0.000726,10.530138,-0.022339,0.456151,-0.889622,-0.002571,0.000830,0.427233,-0.017935,0.002978,1.417630,0.999992,0.000706,-0.003718,-0.000994,-0.001016,0.001202,0.431336
1790767660.725835,0.025081,-0.008847,-0.015782,-0.005952,0.000277,10.510496,-0.023356,0.456028,-0.889659,-0.002571,0.000830,0.427233,-0.017935,0.002978,1.417630,0.999992,0.000938,-0.003810,-0.001141,-0.001368,0.001365,0.460081
1790767660.731394,0.024566,-0.008229,-0.014546,-0.000839,-0.000605,10.479876,-0.023356,0.456028,-0.889659,-0.003271,0.000927,0.478857,-0.020743,0.002398,1.445775,0.999992,0.000938,-0.003810,-0.001141,-0.001368,0.001365,0.460081
1790767660.733274,0.024830,-0.009350,-0.014870,0.004166,0.002792,10.455584,-0.023016,0.456600,-0.889375,-0.003271,0.000927,0.478857,-0.020743,0.002398,1.445775,0.999992,0.000938,-0.003810,-0.001141,-0.001368,0.001365,0.460081
1790767660.737777,0.024022,-0.007373,-0.014707,-0.002725,0.005380,10.453990,-0.023016,0.456600,-0.889375,-0.003271,0.000927,0.478857,-0.020743,0.002398,1.445775,0.999992,0.000938,-0.003810,-0.001141,-0.001368,0.001365,0.460081
1790767660.741438,0.024554,-0.009671,-0.015754,0.014807,-0.003593,10.423281,-0.023016,0.456600,-0.889375,-0.003271,0.000927,0.478857,-0.020743,0.002398,1.445775,0.999992,0.000938,-0.003810,-0.001141,-0.001368,0.001365,0.460081
1790767660.745421,0.026688,-0.009267,-0.015102,0.004859,-0.005535,10.399791,-0.023080,0.456441,-0.889454,-0.003271,0.000927,0.478857,-0.020743,0.002398,1.445775,0.999991,0.001189,-0.003902,-0.001288,-0.001751,0.001530,0.489101
1790767660.748606,0.025896,-0.009617,-0.013490,-0.005067,-0.012298,10.370477,-0.023080,0.456441,-0.889454,-0.003271,0.000927,0.478857,-0.020743,0.002398,1.445775,0.999991,0.001189,-0.003902,-0.001288,-0.001751,0.001530,0.489101
1790767660.752459,0.026663,-0.009555,-0.014784,-0.004303,0.006967,10.338322,-0.023579,0.456616,-0.889351,-0.003271,0.000927,0.478857,-0.020743,0.002398,1.445775,0.999991,0.001189,-0.003902,-0.001288,-0.001751,0.001530,0.489101
1790767660.757591,0.028058,-0.009942,-0.014827,0.002594,-0.000270,10.324945,-0.023579,0.456616,-0.889351,-0.003271,0.000927,0.478857,-0.020743,0.002398,1.445775,0.999991,0.001189,-0.003902,-0.001288,-0.001751,0.001530,0.489101
1790767660.760924,0.028106,-0.011439,-0.014475,0.004118,0.003638,10.299450,-0.023579,0.456616,-0.889351,-0.003978,0.000990,0.525474,-0.023285,0.001617,1.464400,0.999991,0.001189,-0.003902,-0.001288,-0.001751,0.001530,0.489101
1790767660.764864,0.027034,-0.009534,-0.015466,-0.002864,-0.004667,10.280328,-0.023449,0.456899,-0.889209,-0.003978,0.000990,0.525474,-0.023285,0.001617,1.464400,0.999990,0.001456,-0.003998,-0.001431,-0.002164,0.001692,0.518348
1790767660.768598,0.027150,-0.010369,-0.015047,0.001379,0.000587,10.268802,-0.023449,0.456899,-0.889209,-0.003978,0.000990,0.525474,-0.023285,0.001617,1.464400,0.999990,0.001456,-0.003998,-0.001431,-0.002164,0.001692,0.518348
1790767660.773055,0.029220,-0.008668,-0.015567,-0.010693,0.000775,10.254093,-0.023887,0.456419,-0.889444,-0.003978,0.000990,0.525474,-0.023285,0.001617,1.464400,0.999990,0.001456,-0.003998,-0.001431,-0.002164,0.001692,0.518348
1790767660.776762,0.027092,-0.010343,-0.014267,-0.001846,-0.003845,10.242721,-0.023887,0.456419,-0.889444,-0.003978,0.000990,0.525474,-0.023285,0.001617,1.464400,0.999990,0.001456,-0.003998,-0.001431,-0.002164,0.001692,0.518348
1790767660.780751,0.027625,-0.009619,-0.014744,-0.001072,0.000528,10.219745,-0.023887,0.456419,-0.889444,-0.003978,0.000990,0.525474,-0.023285,0.001617,1.464400,0.999990,0.001456,-0.003998,-0.001431,-0.002164,0.001692,0.518348
1790767660.784730,0.028591,-0.009739,-0.015042,0.010669,0.004787,10.195348,-0.024787,0.456816,-0.889216,-0.003978,0.000990,0.525474,-0.023285,0.001617,1.464400,0.999989,0.001736,-0.004092,-0.001574,-0.002610,0.001849,0.547782
1790767660.788812,0.028933,-0.008311,-0.015184,-0.000376,-0.002122,10.150245,-0.024787,0.456816,-0.889216,-0.003978,0.000990,0.525474,-0.023285,0.001617,1.464400,0.999989,0.001736,-0.004092,-0.001574,-0.002610,0.001849,0.547782
1790767660.793221,0.028328,-0.008044,-0.014150,0.019064,-0.002031,10.125356,-0.025271,0.456827,-0.889196,-0.004767,0.001024,0.572589,-0.025883,0.000564,1.477746,0.999989,0.001736,-0.004092,-0.001574,-0.002610,0.001849,0.547782
1790767660.796670,0.028800,-0.008732,-0.014473,0.007391,0.010665,10.119304,-0.025271,0.456827,-0.889196,-0.004767,0.001024,0.572589,-0.025883,0.000564,1.477746,0.999989,0.001736,-0.004092,-0.001574,-0.002610,0.001849,0.547782
1790767660.801428,0.027956,-0.007332,-0.015369,0.002343,0.007212,10.093445,-0.025271,0.456827,-0.889196,-0.004767,0.001024,0.572589,-0.025883,0.000564,1.477746,0.999989,0.001736,-0.004092,-0.001574,-0.002610,0.001849,0.547782
1790767660.805045,0.028056,-0.006341,-0.013738,0.007843,-0.000124,10.070715,-0.025098,0.457082,-0.889070,-0.004767,0.001024,0.572589,-0.025883,0.000564,1.477746,0.999988,0.002018,-0.004168,-0.001714,-0.003098,0.001992,0.577361
1790767660.808956,0.028510,-0.006384,-0.014112,0.005610,0.006412,10.055931,-0.025098,0.457082,-0.889070,-0.004767,0.001024,0.572589,-0.025883,0.000564,1.477746,0.999988,0.002018,-0.004168,-0.001714,-0.003098,0.001992,0.577361
1790767660.812800,0.028618,-0.006293,-0.013174,0.003817,0.000375,10.058250,-0.025690,0.456968,-0.889112,-0.004767,0.001024,0.572589,-0.025883,0.000564,1.477746,0.999988,0.002018,-0.004168,-0.001714,-0.003098,0.001992,0.577361
1790767660.816598,0.029062,-0.006384,-0.013069,0.002058,0.000788,10.015547,-0.025690,0.456968,-0.889112,-0.004767,0.001024,0.572589,-0.025883,0.000564,1.477746,0.999988,0.002018,-0.004168,-0.001714,-0.003098,0.001992,0.577361
1790767660.821615,0.026196,-0.005824,-0.012811,-0.001465,0.003124,9.987246,-0.025690,0.456968,-0.889112,-0.004767,0.001024,0.572589,-0.025883,0.000564,1.477746,0.999988,0.002018,-0.004168,-0.001714,-0.003098,0.001992,0.577361
1790767660.825828,0.026737,-0.005296,-0.013594,0.003131,0.007644,9.959019,-0.025984,0.457250,-0.888958,-0.005641,0.001019,0.620032,-0.028515,-0.000765,1.485613,0.999987,0.002298,-0.004225,-0.001851,-0.003627,0.002118,0.607043
1790767660.830664,0.027664,-0.005193,-0.012664,-0.003215,0.000705,9.947165,-0.025984,0.457250,-0.888958,-0.005641,0.001019,0.620032,-0.028515,-0.000765,1.485613,0.999987,0.002298,-0.004225,-0.001851,-0.003627,0.002118,0.607043
1790767660.833219,0.027411,-0.004084,-0.014303,0.004404,0.006603,9.924508,-0.026524,0.457093,-0.889023,-0.005641,0.001019,0.620032,-0.028515,-0.000765,1.485613,0.999987,0.002298,-0.004225,-0.001851,-0.003627,0.002118,0.607043
1790767660.836709,0.027004,-0.003643,-0.013164,-0.009475,-0.003143,9.920350,-0.026524,0.457093,-0.889023,-0.005641,0.001019,0.620032,-0.028515,-0.000765,1.485613,0.999987,0.002298,-0.004225,-0.001851,-0.003627,0.002118,0.607043
1790767660.841782,0.029341,-0.004601,-0.013159,-0.000123,-0.009316,9.892410,-0.026524,0.457093,-0.889023,-0.005641,0.001019,0.620032,-0.028515,-0.000765,1.485613,0.999987,0.002298,-0.004225,-0.001851,-0.003627,0.002118,0.607043
1790767660.844818,0.027519,-0.006008,-0.013521,0.015054,-0.002121,9.897390,-0.026397,0.457234,-0.888955,-0.005641,0.001019,0.620032,-0.028515,-0.000765,1.485613,0.999986,0.002577,-0.004273,-0.001980,-0.004193,0.002225,0.636786
1790767660.848449,0.026206,-0.004414,-0.013368,0.005986,0.009936,9.860597,-0.026397,0.457234,-0.888955,-0.005641,0.001019,0.620032,-0.028515,-0.000765,1.485613,0.999986,0.002577,-0.004273,-0.001980,-0.004193,0.002225,0.636786
1790767660.852488,0.028902,-0.003303,-0.011254,0.002512,0.008593,9.835792,-0.026790,0.457058,-0.889033,-0.005641,0.001019,0.620032,-0.028515,-0.000765,1.485613,0.999986,0.002577,-0.004273,-0.001980,-0.004193,0.002225,0.636786
1790767660.857637,0.028639,-0.004880,-0.010474,0.008007,-0.000264,9.815682,-0.026790,0.457058,-0.889033,-0.005641,0.001019,0.620032,-0.028515,-0.000765,1.485613,0.999986,0.002577,-0.004273,-0.001980,-0.004193,0.002225,0.636786
1790767660.860789,0.028845,-0.007832,-0.011574,-0.000164,0.000428,9.797835,-0.026790,0.457058,-0.889033,-0.006723,0.000956,0.673587,-0.031473,-0.002569,1.488299,0.999986,0.002577,-0.004273,-0.001980,-0.004193,0.002225,0.636786
1790767660.864614,0.027988,-0.005661,-0.012176,-0.004020,0.003074,9.782161,-0.027086,0.457078,-0.889014,-0.006723,0.000956,0.673587,-0.031473,-0.002569,1.488299,0.999984,0.002857,-0.004328,-0.002095,-0.004790,0.002312,0.666552
1790767660.868556,0.029218,-0.005486,-0.010186,0.008858,-0.000768,9.760870,-0.027086,0.457078,-0.889014,-0.006723,0.000956,0.673587,-0.031473,-0.002569,1.488299,0.999984,0.002857,-0.004328,-0.002095,-0.004790,0.002312,0.666552
1790767660.873266,0.030171,-0.005143,-0.010966,-0.005841,-0.000597,9.743796,-0.027395,0.457221,-0.888931,-0.006723,0.000956,0.673587,-0.031473,-0.002569,1.488299,0.999984,0.002857,-0.004328,-0.002095,-0.004790,0.002312,0.666552
1790767660.876668,0.028305,-0.006703,-0.010738,0.010374,-0.000809,9.728151,-0.027395,0.457221,-0.888931,-0.006723,0.000956,0.673587,-0.031473,-0.002569,1.488299,0.999984,0.002857,-0.004328,-0.002095,-0.004790,0.002312,0.666552
1790767660.880693,0.025976,-0.006888,-0.009228,0.006347,-0.009501,9.724936,-0.027395,0.457221,-0.888931,-0.006723,0.000956,0.673587,-0.031473,-0.002569,1.488299,0.999984,0.002857,-0.004328,-0.002095,-0.004790,0.002312,0.666552
1790767660.884831,0.027396,-0.008022,-0.008337,0.001677,-0.004649,9.689297,-0.027699,0.457413,-0.888823,-0.006723,0.000956,0.673587,-0.031473,-0.002569,1.488299,0.999983,0.003136,-0.004397,-0.002194,-0.005412,0.002376,0.696305
1790767660.888723,0.028732,-0.007454,-0.009181,0.004386,-0.000565,9.674455,-0.027699,0.457413,-0.888823,-0.006723,0.000956,0.673587,-0.031473,-0.002569,1.488299,0.999983,0.003136,-0.004397,-0.002194,-0.005412,0.002376,0.696305
1790767660.892932,0.028926,-0.007016,-0.009525,0.000895,0.013066,9.657834,-0.028287,0.457324,-0.888850,-0.007775,0.000841,0.721179,-0.034109,-0.004442,1.485765,0.999983,0.003136,-0.004397,-0.002194,-0.005412,0.002376,0.696305
1790767660.896669,0.028243,-0.009971,-0.009189,0.006234,-0.000638,9.645258,-0.028287,0.457324,-0.888850,-0.007775,0.000841,0.721179,-0.034109,-0.004442,1.485765,0.999983,0.003136,-0.004397,-0.002194,-0.005412,0.002376,0.696305
1790767660.900833,0.027916,-0.007436,-0.008255,0.000094,0.000415,9.633252,-0.028287,0.457324,-0.888850,-0.007775,0.000841,0.721179,-0.034109,-0.004442,1.485765,0.999983,0.003136,-0.004397,-0.002194,-0.005412,0.002376,0.696305
1790767660.905023,0.027075,-0.010425,-0.006919,0.003494,0.009635,9.621404,-0.028245,0.457471,-0.888776,-0.007775,0.000841,0.721179,-0.034109,-0.004442,1.485765,0.999982,0.003409,-0.004484,-0.002274,-0.006058,0.002413,0.726007
1790767660.908808,0.026457,-0.010947,-0.007948,0.004715,0.004901,9.613979,-0.028245,0.457471,-0.888776,-0.007775,0.000841,0.721179,-0.034109,-0.004442,1.485765,0.999982,0.003409,-0.004484,-0.002274,-0.006058,0.002413,0.726007
1790767660.912712,0.028976,-0.008329,-0.006652,0.003793,0.003105,9.595038,-0.028384,0.457521,-0.888746,-0.007775,0.000841,0.721179,-0.034109,-0.004442,1.485765,0.999982,0.003409,-0.004484,-0.002274,-0.006058,0.002413,0.726007
1790767660.916494,0.026515,-0.010626,-0.005104,0.002207,0.010503,9.598854,-0.028384,0.457521,-0.888746,-0.007775,0.000841,0.721179,-0.034109,-0.004442,1.485765,0.999982,0.003409,-0.004484,-0.002274,-0.006058,0.002413,0.726007
1790767660.922196,0.025839,-0.009583,-0.006452,0.004071,0.005857,9.586843,-0.028384,0.457521,-0.888746,-0.007775,0.000841,0.721179,-0.034109,-0.004442,1.485765,0.999982,0.003409,-0.004484,-0.002274,-0.006058,0.002413,0.726007
1790767660.925641,0.026490,-0.011498,-0.005973,0.007166,-0.003208,9.585207,-0.028713,0.457940,-0.888519,-0.008911,0.000661,0.768618,-0.036788,-0.006563,1.479613,0.999980,0.003676,-0.004588,-0.002335,-0.006730,0.002420,0.755634
1790767660.928673,0.025306,-0.011124,-0.003797,-0.001230,0.010223,9.561896,-0.028713,0.457940,-0.888519,-0.008911,0.000661,0.768618,-0.036788,-0.006563,1.479613,0.999980,0.003676,-0.004588,-0.002335,-0.006730,0.002420,0.755634
1790767660.932498,0.027195,-0.011572,-0.005691,-0.005931,-0.005638,9.546971,-0.029072,0.457505,-0.888732,-0.008911,0.000661,0.768618,-0.036788,-0.006563,1.479613,0.999980,0.003676,-0.004588,-0.002335,-0.006730,0.002420,0.755634
1790767660.936964,0.025796,-0.011054,-0.004563,0.006184,-0.009651,9.537913,-0.029072,0.457505,-0.888732,-0.008911,0.000661,0.768618,-0.036788,-0.006563,1.479613,0.999980,0.003676,-0.004588,-0.002335,-0.006730,0.002420,0.755634
1790767660.941507,0.026556,-0.012182,-0.004017,-0.006620,0.004540,9.523083,-0.029072,0.457505,-0.888732,-0.008911,0.000661,0.768618,-0.036788,-0.006563,1.479613,0.999980,0.003676,-0.004588,-0.002335,-0.006730,0.002420,0.755634
1790767660.945143,0.025422,-0.012419,-0.002556,0.003578,0.004090,9.503055,-0.029215,0.458250,-0.888343,-0.008911,0.000661,0.768618,-0.036788,-0.006563,1.479613,0.999978,0.003938,-0.004706,-0.002376,-0.007430,0.002397,0.785166
1790767660.948660,0.025209,-0.012851,-0.001781,-0.017287,0.004758,9.499496,-0.029215,0.458250,-0.888343,-0.008911,0.000661,0.768618,-0.036788,-0.006563,1.479613,0.999978,0.003938,-0.004706,-0.002376,-0.007430,0.002397,0.785166
1790767660.952725,0.026404,-0.013545,-0.001903,0.007695,0.000239,9.490330,-0.029666,0.457911,-0.888503,-0.008911,0.000661,0.768618,-0.036788,-0.006563,1.479613,0.999978,0.003938,-0.004706,-0.002376,-0.007430,0.002397,0.785166
1790767660.956811,0.025544,-0.012129,-0.003295,0.002125,0.005262,9.487081,-0.029666,0.457911,-0.888503,-0.010134,0.000409,0.815810,-0.039541,-0.008916,1.470545,0.999978,0.003938,-0.004706,-0.002376,-0.007430,0.002397,0.785166
1790767660.961100,0.023772,-0.012152,-0.002138,0.012772,0.005947,9.459235,-0.029666,0.457911,-0.888503,-0.010134,0.000409,0.815810,-0.039541,-0.008916,1.470545,0.999978,0.003938,-0.004706,-0.002376,-0.007430,0.002397,0.785166
1790767660.964895,0.026024,-0.012308,-0.000376,0.003528,0.006746,9.435116,-0.029925,0.458410,-0.888237,-0.010134,0.000409,0.815810,-0.039541,-0.008916,1.470545,0.999977,0.004197,-0.004833,-0.002397,-0.008159,0.002343,0.814577
1790767660.968534,0.025129,-0.013051,-0.000474,0.012913,0.000082,9.417490,-0.029925,0.458410,-0.888237,-0.010134,0.000409,0.815810,-0.039541,-0.008916,1.470545,0.999977,0.004197,-0.004833,-0.002397,-0.008159,0.002343,0.814577
1790767660.972878,0.026318,-0.013534,0.000252,-0.004977,-0.007068,9.421726,-0.030291,0.458008,-0.888432,-0.010134,0.000409,0.815810,-0.039541,-0.008916,1.470545,0.999977,0.004197,-0.004833,-0.002397,-0.008159,0.002343,0.814577
1790767660.976563,0.025980,-0.010924,-0.000364,0.022029,0.006839,9.386814,-0.030291,0.458008,-0.888432,-0.010134,0.000409,0.815810,-0.039541,-0.008916,1.470545,0.999977,0.004197,-0.004833,-0.002397,-0.008159,0.002343,0.814577
1790767660.980690,0.025463,-0.012417,0.000390,0.002547,-0.004689,9.389732,-0.030291,0.458008,-0.888432,-0.010134,0.000409,0.815810,-0.039541,-0.008916,1.470545,0.999977,0.004197,-0.004833,-0.002397,-0.008159,0.002343,0.814577
1790767660.984997,0.024901,-0.012606,0.001404,-0.008472,0.005523,9.388624,-0.030213,0.458235,-0.888318,-0.010134,0.000409,0.815810,-0.039541,-0.008916,1.470545,0.999975,0.004454,-0.004964,-0.002399,-0.008922,0.002256,0.843839
1790767660.988724,0.024860,-0.012983,0.000043,0.002273,0.005457,9.367639,-0.030213,0.458235,-0.888318,-0.010134,0.000409,0.815810,-0.039541,-0.008916,1.470545,0.999975,0.004454,-0.004964,-0.002399,-0.008922,0.002256,0.843839
1790767660.993502,0.024270,-0.012172,0.000884,0.006652,0.006772,9.336842,-0.030405,0.458488,-0.888180,-0.011616,0.000031,0.868474,-0.042738,-0.011824,1.456121,0.999975,0.004454,-0.004964,-0.002399,-0.008922,0.002256,0.843839
1790767660.996858,0.023657,-0.011276,0.000751,0.007290,-0.002700,9.308984,-0.030405,0.458488,-0.888180,-0.011616,0.000031,0.868474,-0.042738,-0.011824,1.456121,0.999975,0.004454,-0.004964,-0.002399,-0.008922,0.002256,0.843839
1790767661.000478,0.024405,-0.010570,0.002477,0.001438,-0.003788,9.305601,-0.030405,0.458488,-0.888180,-0.011616,0.000031,0.868474,-0.042738,-0.011824,1.456121,0.999975,0.004454,-0.004964,-0.002399,-0.008922,0.002256,0.843839
1790767661.005818,0.022355,-0.010337,0.002066,-0.003122,-0.001929,9.280752,-0.031102,0.458502,-0.888149,-0.011616,0.000031,0.868474,-0.042738,-0.011824,1.456121,0.999973,0.004698,-0.005086,-0.002385,-0.009726,0.002130,0.872923
1790767661.010220,0.024234,-0.011223,0.002652,0.009127,0.000112,9.269642,-0.031102,0.458502,-0.888149,-0.011616,0.000031,0.868474,-0.042738,-0.011824,1.456121,0.999973,0.004698,-0.005086,-0.002385,-0.009726,0.002130,0.872923
1790767661.014012,0.023048,-0.009626,0.001665,0.002933,-0.010028,9.263492,-0.031055,0.458751,-0.888022,-0.011616,0.000031,0.868474,-0.042738,-0.011824,1.456121,0.999973,0.004698,-0.005086,-0.002385,-0.009726,0.002130,0.872923
1790767661.017557,0.022942,-0.011152,0.004446,0.007620,0.008801,9.255141,-0.031055,0.458751,-0.888022,-0.011616,0.000031,0.868474,-0.042738,-0.011824,1.456121,0.999973,0.004698,-0.005086,-0.002385,-0.009726,0.002130,0.872923
1790767661.025170,0.021038,-0.008350,0.002881,0.003431,0.003972,9.250005,-0.030427,0.458752,-0.888043,-0.011616,0.000031,0.868474,-0.042738,-0.011824,1.456121,0.999972,0.004926,-0.005190,-0.002355,-0.010574,0.001961,0.901797
1790767661.026839,0.021038,-0.008350,0.002881,0.003431,0.003972,9.250005,-0.030427,0.458752,-0.888043,-0.013032,-0.000397,0.914772,-0.045662,-0.014619,1.439186,0.999972,0.004926,-0.005190,-0.002355,-0.010574,0.001961,0.901797
1790767661.030817,0.020896,-0.009796,0.004617,0.000305,-0.001069,9.228966,-0.030427,0.458752,-0.888043,-0.013032,-0.000397,0.914772,-0.045662,-0.014619,1.439186,0.999972,0.004926,-0.005190,-0.002355,-0.010574,0.001961,0.901797
1790767661.033606,0.021158,-0.009466,0.005240,0.000037,0.000909,9.247277,-0.031140,0.458716,-0.888037,-0.013032,-0.000397,0.914772,-0.045662,-0.014619,1.439186,0.999972,0.004926,-0.005190,-0.002355,-0.010574,0.001961,0.901797
1790767661.040374,0.020502,-0.009494,0.004639,0.003438,0.003804,9.221274,-0.031140,0.458716,-0.888037,-0.013032,-0.000397,0.914772,-0.045662,-0.014619,1.439186,0.999972,0.004926,-0.005190,-0.002355,-0.010574,0.001961,0.901797
1790767661.041565,0.020502,-0.009494,0.004639,0.003438,0.003804,9.221274,-0.031140,0.458716,-0.888037,-0.013032,-0.000397,0.914772,-0.045662,-0.014619,1.439186,0.999972,0.004926,-0.005190,-0.002355,-0.010574,0.001961,0.901797
1790767661.045662,0.020614,-0.007992,0.006077,-0.001576,0.001095,9.187947,-0.031644,0.458809,-0.887971,-0.013032,-0.000397,0.914772,-0.045662,-0.014619,1.439186,0.999970,0.005140,-0.005278,-0.002310,-0.011467,0.001749,0.930445
1790767661.050036,0.021046,-0.008126,0.006580,-0.004054,-0.002729,9.201105,-0.031644,0.458809,-0.887971,-0.013032,-0.000397,0.914772,-0.045662,-0.014619,1.439186,0.999970,0.005140,-0.005278,-0.002310,-0.011467,0.001749,0.930445
1790767661.053388,0.021190,-0.007179,0.005067,0.011687,-0.003882,9.180902,-0.031331,0.458767,-0.888004,-0.013032,-0.000397,0.914772,-0.045662,-0.014619,1.439186,0.999970,0.005140,-0.005278,-0.002310,-0.011467,0.001749,0.930445
1790767661.058647,0.020147,-0.007680,0.004908,0.012017,0.003196,9.177501,-0.031331,0.458767,-0.888004,-0.014543,-0.000918,0.960492,-0.048646,-0.017594,1.420201,0.999970,0.005140,-0.005278,-0.002310,-0.011467,0.001749,0.930445
1790767661.061741,0.021395,-0.007675,0.006615,0.015484,0.002257,9.173273,-0.031331,0.458767,-0.888004,-0.014543,-0.000918,0.960492,-0.048646,-0.017594,1.420201,0.999970,0.005140,-0.005278,-0.002310,-0.011467,0.001749,0.930445
1790767661.065483,0.021176,-0.007948,0.006654,-0.000106,0.009671,9.170239,-0.031822,0.458890,-0.887923,-0.014543,-0.000918,0.960492,-0.048646,-0.017594,1.420201,0.999969,0.005349,-0.005355,-0.002250,-0.012403,0.001498,0.958850
1790767661.069122,0.020592,-0.007116,0.006882,0.010921,0.002123,9.136602,-0.031822,0.458890,-0.887923,-0.014543,-0.000918,0.960492,-0.048646,-0.017594,1.420201,0.999969,0.005349,-0.005355,-0.002250,-0.012403,0.001498,0.958850
1790767661.073158,0.022742,-0.006037,0.009456,0.001254,0.005863,9.125570,-0.031677,0.459302,-0.887715,-0.014543,-0.000918,0.960492,-0.048646,-0.017594,1.420201,0.999969,0.005349,-0.005355,-0.002250,-0.012403,0.001498,0.958850
1790767661.077042,0.020079,-0.007158,0.008912,-0.001666,-0.012868,9.112696,-0.031677,0.459302,-0.887715,-0.014543,-0.000918,0.960492,-0.048646,-0.017594,1.420201,0.999969,0.005349,-0.005355,-0.002250,-0.012403,0.001498,0.958850
1790767661.080722,0.020785,-0.007377,0.008851,0.013804,0.009542,9.104159,-0.031677,0.459302,-0.887715,-0.014543,-0.000918,0.960492,-0.048646,-0.017594,1.420201,0.999969,0.005349,-0.005355,-0.002250,-0.012403,0.001498,0.958850
1790767661.085077,0.020073,-0.008655,0.006354,0.005722,0.007712,9.105068,-0.031928,0.459104,-0.887808,-0.014543,-0.000918,0.960492,-0.048646,-0.017594,1.420201,0.999967,0.005559,-0.005423,-0.002175,-0.013381,0.001208,0.986990
1790767661.089385,0.020856,-0.005804,0.009171,0.000568,-0.000323,9.081919,-0.031928,0.459104,-0.887808,-0.016149,-0.001538,1.005555,-0.051663,-0.020728,1.398456,0.999967,0.005559,-0.005423,-0.002175,-0.013381,0.001208,0.986990
1790767661.093757,0.020206,-0.005502,0.010268,0.000729,-0.010246,9.068226,-0.031993,0.458944,-0.887889,-0.016149,-0.001538,1.005555,-0.051663,-0.020728,1.398456,0.999967,0.005559,-0.005423,-0.002175,-0.013381,0.001208,0.986990
1790767661.096839,0.020495,-0.006311,0.008830,-0.007251,-0.009467,9.076372,-0.031993,0.458944,-0.887889,-0.016149,-0.001538,1.005555,-0.051663,-0.020728,1.398456,0.999967,0.005559,-0.005423,-0.002175,-0.013381,0.001208,0.986990
1790767661.101012,0.019875,-0.005651,0.009253,0.008429,0.005812,9.063418,-0.031993,0.458944,-0.887889,-0.016149,-0.001538,1.005555,-0.051663,-0.020728,1.398456,0.999967,0.005559,-0.005423,-0.002175,-0.013381,0.001208,0.986990
1790767661.105400,0.021244,-0.004884,0.009280,0.009475,-0.001714,9.034307,-0.032106,0.459065,-0.887823,-0.016149,-0.001538,1.005555,-0.051663,-0.020728,1.398456,0.999966,0.005773,-0.005486,-0.002085,-0.014399,0.000880,1.014844
1790767661.109268,0.022165,-0.006216,0.010535,0.003774,0.003182,9.034181,-0.032106,0.459065,-0.887823,-0.016149,-0.001538,1.005555,-0.051663,-0.020728,1.398456,0.999966,0.005773,-0.005486,-0.002085,-0.014399,0.000880,1.014844
1790767661.113135,0.021402,-0.004666,0.010212,0.006621,0.003739,9.019070,-0.032078,0.459415,-0.887643,-0.016149,-0.001538,1.005555,-0.051663,-0.020728,1.398456,0.999966,0.005773,-0.005486,-0.002085,-0.014399,0.000880,1.014844
1790767661.116874,0.022055,-0.006114,0.009752,0.010510,-0.009544,9.019776,-0.032078,0.459415,-0.887643,-0.016149,-0.001538,1.005555,-0.051663,-0.020728,1.398456,0.999966,0.005773,-0.005486,-0.002085,-0.014399,0.000880,1.014844
1790767661.120767,0.022667,-0.005517,0.011147,0.010064,-0.001109,9.012118,-0.032078,0.459415,-0.887643,-0.016149,-0.001538,1.005555,-0.051663,-0.020728,1.398456,0.999966,0.005773,-0.005486,-0.002085,-0.014399,0.000880,1.014844
1790767661.125834,0.022669,-0.006372,0.012147,0.006816,0.001130,9.001473,-0.032542,0.459462,-0.887601,-0.018071,-0.002358,1.055359,-0.055081,-0.024443,1.370926,0.999965,0.005992,-0.005547,-0.001981,-0.015456,0.000513,1.042391
1790767661.129041,0.021340,-0.005306,0.010275,0.006313,0.014255,8.991967,-0.032542,0.459462,-0.887601,-0.018071,-0.002358,1.055359,-0.055081,-0.024443,1.370926,0.999965,0.005992,-0.005547,-0.001981,-0.015456,0.000513,1.042391
1790767661.132847,0.021643,-0.005105,0.012018,0.002386,0.000983,8.975617,-0.033100,0.459397,-0.887614,-0.018071,-0.002358,1.055359,-0.055081,-0.024443,1.370926,0.999965,0.005992,-0.005547,-0.001981,-0.015456,0.000513,1.042391
1790767661.140179,0.023899,-0.005778,0.012712,0.012369,0.009614,8.974527,-0.033100,0.459397,-0.887614,-0.018071,-0.002358,1.055359,-0.055081,-0.024443,1.370926,0.999965,0.005992,-0.005547,-0.001981,-0.015456,0.000513,1.042391
1790767661.144318,0.022794,-0.005697,0.011246,0.006043,0.001642,8.947631,-0.033100,0.459397,-0.887614,-0.018071,-0.002358,1.055359,-0.055081,-0.024443,1.370926,0.999965,0.005992,-0.005547,-0.001981,-0.015456,0.000513,1.042391
1790767661.145236,0.022794,-0.005697,0.011246,0.006043,0.001642,8.947631,-0.033250,0.459547,-0.887531,-0.018071,-0.002358,1.055359,-0.055081,-0.024443,1.370926,0.999963,0.006217,-0.005607,-0.001863,-0.016552,0.000107,1.069614
1790767661.149223,0.023719,-0.006733,0.013390,-0.001626,0.004067,8.946423,-0.033250,0.459547,-0.887531,-0.018071,-0.002358,1.055359,-0.055081,-0.024443,1.370926,0.999963,0.006217,-0.005607,-0.001863,-0.016552,0.000107,1.069614
1790767661.153483,0.023154,-0.005155,0.013418,-0.002654,-0.005667,8.945615,-0.032767,0.459717,-0.887461,-0.018071,-0.002358,1.055359,-0.055081,-0.024443,1.370926,0.999963,0.006217,-0.005607,-0.001863,-0.016552,0.000107,1.069614
1790767661.157960,0.022795,-0.006894,0.011888,0.001280,-0.001879,8.924684,-0.032767,0.459717,-0.887461,-0.019884,-0.003202,1.098750,-0.058140,-0.027921,1.343961,0.999963,0.006217,-0.005607,-0.001863,-0.016552,0.000107,1.069614
1790767661.161150,0.022001,-0.004397,0.013456,0.014262,-0.000420,8.930673,-0.032767,0.459717,-0.887461,-0.019884,-0.003202,1.098750,-0.058140,-0.027921,1.343961,0.999963,0.006217,-0.005607,-0.001863,-0.016552,0.000107,1.069614
1790767661.165200,0.022489,-0.006609,0.013566,0.003686,-0.002702,8.942497,-0.033683,0.459922,-0.887320,-0.019884,-0.003202,1.098750,-0.058140,-0.027921,1.343961,0.999962,0.006450,-0.005666,-0.001730,-0.017687,-0.000339,1.096495
1790767661.168910,0.023340,-0.005092,0.013484,0.007794,0.006358,8.923559,-0.033683,0.459922,-0.887320,-0.019884,-0.003202,1.098750,-0.058140,-0.027921,1.343961,0.999962,0.006450,-0.005666,-0.001730,-0.017687,-0.000339,1.096495
1790767661.173095,0.024760,-0.006202,0.013356,0.007096,0.007021,8.936252,-0.033181,0.459672,-0.887469,-0.019884,-0.003202,1.098750,-0.058140,-0.027921,1.343961,0.999962,0.006450,-0.005666,-0.001730,-0.017687,-0.000339,1.096495
1790767661.177073,0.025455,-0.005626,0.016299,-0.002996,0.005325,8.951739,-0.033181,0.459672,-0.887469,-0.019884,-0.003202,1.098750,-0.058140,-0.027921,1.343961,0.999962,0.006450,-0.005666,-0.001730,-0.017687,-0.000339,1.096495
1790767661.180825,0.022582,-0.005129,0.014215,0.001603,-0.001158,8.925690,-0.033181,0.459672,-0.887469,-0.019884,-0.003202,1.098750,-0.058140,-0.027921,1.343961,0.999962,0.006450,-0.005666,-0.001730,-0.017687,-0.000339,1.096495
1790767661.185278,0.021892,-0.006441,0.015550,0.005906,-0.000080,8.917753,-0.033184,0.459639,-0.887486,-0.019884,-0.003202,1.098750,-0.058140,-0.027921,1.343961,0.999960,0.006690,-0.005722,-0.001586,-0.018862,-0.000828,1.123030
1790767661.189059,0.023865,-0.005623,0.014528,0.001311,0.008874,8.906069,-0.033184,0.459639,-0.887486,-0.021794,-0.004161,1.141257,-0.061232,-0.031591,1.316051,0.999960,0.006690,-0.005722,-0.001586,-0.018862,-0.000828,1.123030
1790767661.193323,0.024289,-0.004794,0.014489,0.001842,0.004640,8.892940,-0.033182,0.459799,-0.887403,-0.021794,-0.004161,1.141257,-0.061232,-0.031591,1.316051,0.999960,0.006690,-0.005722,-0.001586,-0.018862,-0.000828,1.123030
1790767661.196997,0.022216,-0.004104,0.015438,0.001091,-0.003011,8.887643,-0.033182,0.459799,-0.887403,-0.021794,-0.004161,1.141257,-0.061232,-0.031591,1.316051,0.999960,0.006690,-0.005722,-0.001586,-0.018862,-0.000828,1.123030
1790767661.200712,0.022805,-0.003489,0.014627,-0.000969,0.002291,8.887422,-0.033182,0.459799,-0.887403,-0.021794,-0.004161,1.141257,-0.061232,-0.031591,1.316051,0.999960,0.006690,-0.005722,-0.001586,-0.018862,-0.000828,1.123030
1790767661.205167,0.022195,-0.001844,0.015763,0.003748,0.004547,8.866560,-0.033584,0.459698,-0.887440,-0.021794,-0.004161,1.141257,-0.061232,-0.031591,1.316051,0.999958,0.006923,-0.005761,-0.001433,-0.020084,-0.001366,1.149206
1790767661.209061,0.023591,-0.002992,0.015204,-0.001281,-0.000988,8.881353,-0.033584,0.459698,-0.887440,-0.021794,-0.004161,1.141257,-0.061232,-0.031591,1.316051,0.999958,0.006923,-0.005761,-0.001433,-0.020084,-0.001366,1.149206
1790767661.213591,0.022018,-0.000614,0.015813,-0.000130,0.008900,8.859595,-0.033891,0.459368,-0.887599,-0.021794,-0.004161,1.141257,-0.061232,-0.031591,1.316051,0.999958,0.006923,-0.005761,-0.001433,-0.020084,-0.001366,1.149206
1790767661.216700,0.022908,-0.001349,0.015562,0.007011,0.012339,8.851704,-0.033891,0.459368,-0.887599,-0.021794,-0.004161,1.141257,-0.061232,-0.031591,1.316051,0.999958,0.006923,-0.005761,-0.001433,-0.020084,-0.001366,1.149206
1790767661.221298,0.021144,-0.001452,0.016564,-0.000156,-0.001719,8.831773,-0.033891,0.459368,-0.887599,-0.023803,-0.005241,1.182840,-0.064338,-0.035448,1.286317,0.999958,0.006923,-0.005761,-0.001433,-0.020084,-0.001366,1.149206
1790767661.225359,0.021665,-0.000191,0.015944,-0.005676,0.013677,8.825675,-0.033856,0.460092,-0.887225,-0.023803,-0.005241,1.182840,-0.064338,-0.035448,1.286317,0.999957,0.007135,-0.005772,-0.001272,-0.021357,-0.001963,1.175010
1790767661.229160,0.019780,-0.001627,0.015786,0.014543,0.004600,8.832109,-0.033856,0.460092,-0.887225,-0.023803,-0.005241,1.182840,-0.064338,-0.035448,1.286317,0.999957,0.007135,-0.005772,-0.001272,-0.021357,-0.001963,1.175010
1790767661.232640,0.019446,0.001187,0.016740,0.007825,0.003288,8.836560,-0.034341,0.459759,-0.887380,-0.023803,-0.005241,1.182840,-0.064338,-0.035448,1.286317,0.999957,0.007135,-0.005772,-0.001272,-0.021357,-0.001963,1.175010
1790767661.239302,0.018643,0.002097,0.017303,0.017373,0.000904,8.832402,-0.034341,0.459759,-0.887380,-0.023803,-0.005241,1.182840,-0.064338,-0.035448,1.286317,0.999957,0.007135,-0.005772,-0.001272,-0.021357,-0.001963,1.175010
1790767661.241161,0.018274,0.001082,0.017004,0.008167,-0.001873,8.833999,-0.034341,0.459759,-0.887380,-0.023803,-0.005241,1.182840,-0.064338,-0.035448,1.286317,0.999957,0.007135,-0.005772,-0.001272,-0.021357,-0.001963,1.175010
1790767661.245145,0.018294,0.002967,0.017432,-0.000817,-0.001113,8.819436,-0.034368,0.459818,-0.887348,-0.023803,-0.005241,1.182840,-0.064338,-0.035448,1.286317,0.999956,0.007325,-0.005759,-0.001102,-0.022682,-0.002620,1.200426
1790767661.249053,0.018781,0.001073,0.017504,0.008229,0.003652,8.812735,-0.034368,0.459818,-0.887348,-0.023803,-0.005241,1.182840,-0.064338,-0.035448,1.286317,0.999956,0.007325,-0.005759,-0.001102,-0.022682,-0.002620,1.200426
1790767661.253170,0.017116,0.003596,0.016302,0.004003,0.009846,8.806648,-0.034086,0.459664,-0.887439,-0.023803,-0.005241,1.182840,-0.064338,-0.035448,1.286317,0.999956,0.007325,-0.005759,-0.001102,-0.022682,-0.002620,1.200426
1790767661.257203,0.016664,0.001597,0.017607,0.009996,0.003324,8.790086,-0.034086,0.459664,-0.887439,-0.026182,-0.006607,1.228444,-0.067801,-0.039969,1.250910,0.999956,0.007325,-0.005759,-0.001102,-0.022682,-0.002620,1.200426
1790767661.260755,0.018308,0.004338,0.015314,0.011344,-0.001271,8.789185,-0.034086,0.459664,-0.887439,-0.026182,-0.006607,1.228444,-0.067801,-0.039969,1.250910,0.999956,0.007325,-0.005759,-0.001102,-0.022682,-0.002620,1.200426
1790767661.264795,0.016648,0.003543,0.018977,0.007412,0.007943,8.788144,-0.034391,0.459717,-0.887400,-0.026182,-0.006607,1.228444,-0.067801,-0.039969,1.250910,0.999955,0.007500,-0.005726,-0.000924,-0.024054,-0.003335,1.225445
1790767661.268824,0.016875,0.003093,0.018053,0.004374,0.005484,8.790136,-0.034391,0.459717,-0.887400,-0.026182,-0.006607,1.228444,-0.067801,-0.039969,1.250910,0.999955,0.007500,-0.005726,-0.000924,-0.024054,-0.003335,1.225445
1790767661.273243,0.018559,0.005073,0.018363,0.017010,-0.002174,8.782885,-0.034571,0.459775,-0.887362,-0.026182,-0.006607,1.228444,-0.067801,-0.039969,1.250910,0.999955,0.007500,-0.005726,-0.000924,-0.024054,-0.003335,1.225445
1790767661.277693,0.017022,0.004815,0.018666,-0.003988,-0.004976,8.775501,-0.034571,0.459775,-0.887362,-0.026182,-0.006607,1.228444,-0.067801,-0.039969,1.250910,0.999955,0.007500,-0.005726,-0.000924,-0.024054,-0.003335,1.225445
1790767661.282765,0.015872,0.004231,0.019386,-0.004497,-0.004766,8.767554,-0.034571,0.459775,-0.887362,-0.026182,-0.006607,1.228444,-0.067801,-0.039969,1.250910,0.999955,0.007500,-0.005726,-0.000924,-0.024054,-0.003335,1.225445
1790767661.285110,0.015349,0.004867,0.018769,0.003883,0.010405,8.754419,-0.034437,0.459665,-0.887424,-0.026182,-0.006607,1.228444,-0.067801,-0.039969,1.250910,0.999954,0.007667,-0.005681,-0.000736,-0.025471,-0.004105,1.250056
1790767661.290186,0.017086,0.005421,0.019179,0.004506,0.001104,8.747852,-0.034437,0.459665,-0.887424,-0.028400,-0.007961,1.267884,-0.070815,-0.044118,1.217913,0.999954,0.007667,-0.005681,-0.000736,-0.025471,-0.004105,1.250056
1790767661.293167,0.016691,0.005374,0.018508,0.017163,0.007151,8.740012,-0.034724,0.459890,-0.887297,-0.028400,-0.007961,1.267884,-0.070815,-0.044118,1.217913,0.999954,0.007667,-0.005681,-0.000736,-0.025471,-0.004105,1.250056
1790767661.296848,0.016640,0.005710,0.018934,0.015446,-0.005697,8.740455,-0.034724,0.459890,-0.887297,-0.028400,-0.007961,1.267884,-0.070815,-0.044118,1.217913,0.999954,0.007667,-0.005681,-0.000736,-0.025471,-0.004105,1.250056
1790767661.301225,0.016031,0.006768,0.018363,0.002947,0.003812,8.727307,-0.034724,0.459890,-0.887297,-0.028400,-0.007961,1.267884,-0.070815,-0.044118,1.217913,0.999954,0.007667,-0.005681,-0.000736,-0.025471,-0.004105,1.250056
1790767661.305599,0.017430,0.005544,0.020770,0.010516,0.004353,8.760548,-0.034768,0.459599,-0.887446,-0.028400,-0.007961,1.267884,-0.070815,-0.044118,1.217913,0.999953,0.007834,-0.005629,-0.000539,-0.026927,-0.004928,1.274245
1790767661.309251,0.015546,0.005206,0.021246,0.015342,0.004515,8.745958,-0.034768,0.459599,-0.887446,-0.028400,-0.007961,1.267884,-0.070815,-0.044118,1.217913,0.999953,0.007834,-0.005629,-0.000539,-0.026927,-0.004928,1.274245
1790767661.313012,0.016377,0.006249,0.017664,0.013990,0.001636,8.747429,-0.034189,0.459791,-0.887369,-0.028400,-0.007961,1.267884,-0.070815,-0.044118,1.217913,0.999953,0.007834,-0.005629,-0.000539,-0.026927,-0.004928,1.274245
1790767661.316724,0.015515,0.005405,0.021730,-0.003434,0.011990,8.763836,-0.034189,0.459791,-0.887369,-0.028400,-0.007961,1.267884,-0.070815,-0.044118,1.217913,0.999953,0.007834,-0.005629,-0.000539,-0.026927,-0.004928,1.274245
1790767661.320942,0.016863,0.003807,0.020551,0.010114,0.001375,8.738016,-0.034189,0.459791,-0.887369,-0.030712,-0.009450,1.306248,-0.073760,-0.048388,1.184139,0.999953,0.007834,-0.005629,-0.000539,-0.026927,-0.004928,1.274245
1790767661.325939,0.016487,0.003576,0.020346,0.010205,-0.003643,8.735054,-0.034908,0.459348,-0.887570,-0.030712,-0.009450,1.306248,-0.073760,-0.048388,1.184139,0.999952,0.008004,-0.005576,-0.000332,-0.028421,-0.005803,1.298013
1790767661.329040,0.017220,0.003675,0.019826,-0.003467,0.012120,8.732590,-0.034908,0.459348,-0.887570,-0.030712,-0.009450,1.306248,-0.073760,-0.048388,1.184139,0.999952,0.008004,-0.005576,-0.000332,-0.028421,-0.005803,1.298013
1790767661.332884,0.018242,0.005548,0.021512,0.000384,0.003506,8.723881,-0.034777,0.459551,-0.887470,-0.030712,-0.009450,1.306248,-0.073760,-0.048388,1.184139,0.999952,0.008004,-0.005576,-0.000332,-0.028421,-0.005803,1.298013
1790767661.336972,0.017191,0.004573,0.021826,0.015929,-0.009195,8.732101,-0.034777,0.459551,-0.887470,-0.030712,-0.009450,1.306248,-0.073760,-0.048388,1.184139,0.999952,0.008004,-0.005576,-0.000332,-0.028421,-0.005803,1.298013
1790767661.341436,0.018577,0.005206,0.020730,0.009452,0.008369,8.725847,-0.034777,0.459551,-0.887470,-0.030712,-0.009450,1.306248,-0.073760,-0.048388,1.184139,0.999952,0.008004,-0.005576,-0.000332,-0.028421,-0.005803,1.298013
1790767661.345078,0.016268,0.005022,0.021610,0.008222,0.000650,8.722153,-0.034721,0.459031,-0.887741,-0.030712,-0.009450,1.306248,-0.073760,-0.048388,1.184139,0.999951,0.008179,-0.005525,-0.000114,-0.029951,-0.006730,1.321354
1790767661.348812,0.016643,0.004969,0.022248,0.013004,0.011281,8.732270,-0.034721,0.459031,-0.887741,-0.030712,-0.009450,1.306248,-0.073760,-0.048388,1.184139,0.999951,0.008179,-0.005525,-0.000114,-0.029951,-0.006730,1.321354
1790767661.353090,0.019441,0.004821,0.024066,0.014292,0.002654,8.724015,-0.034771,0.458961,-0.887776,-0.033117,-0.011077,1.343524,-0.076637,-0.052789,1.149858,0.999951,0.008179,-0.005525,-0.000114,-0.029951,-0.006730,1.321354
1790767661.357152,0.017547,0.004872,0.024168,0.007011,0.017247,8.717212,-0.034771,0.458961,-0.887776,-0.033117,-0.011077,1.343524,-0.076637,-0.052789,1.149858,0.999951,0.008179,-0.005525,-0.000114,-0.029951,-0.006730,1.321354
1790767661.360978,0.018060,0.004297,0.023226,0.014395,-0.004358,8.704639,-0.034771,0.458961,-0.887776,-0.033117,-0.011077,1.343524,-0.076637,-0.052789,1.149858,0.999951,0.008179,-0.005525,-0.000114,-0.029951,-0.006730,1.321354
1790767661.365021,0.019442,0.006109,0.022776,0.000773,0.006943,8.703672,-0.034695,0.459558,-0.887470,-0.033117,-0.011077,1.343524,-0.076637,-0.052789,1.149858,0.999950,0.008359,-0.005474,0.000114,-0.031516,-0.007710,1.344265
1790767661.369035,0.019031,0.005513,0.023182,-0.001178,0.008213,8.717544,-0.034695,0.459558,-0.887470,-0.033117,-0.011077,1.343524,-0.076637,-0.052789,1.149858,0.999950,0.008359,-0.005474,0.000114,-0.031516,-0.007710,1.344265
1790767661.372974,0.018806,0.004532,0.024647,0.006382,-0.001582,8.704888,-0.034817,0.459351,-0.887572,-0.033117,-0.011077,1.343524,-0.076637,-0.052789,1.149858,0.999950,0.008359,-0.005474,0.000114,-0.031516,-0.007710,1.344265
1790767661.376939,0.019500,0.004380,0.024562,0.011318,0.004274,8.696409,-0.034817,0.459351,-0.887572,-0.033117,-0.011077,1.343524,-0.076637,-0.052789,1.149858,0.999950,0.008359,-0.005474,0.000114,-0.031516,-0.007710,1.344265
1790767661.381110,0.018923,0.004224,0.023959,0.012297,0.017947,8.724465,-0.034817,0.459351,-0.887572,-0.033117,-0.011077,1.343524,-0.076637,-0.052789,1.149858,0.999950,0.008359,-0.005474,0.000114,-0.031516,-0.007710,1.344265
1790767661.385163,0.017553,0.003668,0.021604,-0.000616,0.002830,8.697805,-0.035137,0.459201,-0.887637,-0.033117,-0.011077,1.343524,-0.076637,-0.052789,1.149858,0.999949,0.008541,-0.005425,0.000351,-0.033115,-0.008745,1.366738
1790767661.389567,0.017993,0.006218,0.025485,0.005177,0.012732,8.685234,-0.035137,0.459201,-0.887637,-0.035931,-0.013079,1.384130,-0.079795,-0.057900,1.110343,0.999949,0.008541,-0.005425,0.000351,-0.033115,-0.008745,1.366738
1790767661.393430,0.017355,0.005748,0.024083,0.011272,0.008404,8.676449,-0.035585,0.459091,-0.887676,-0.035931,-0.013079,1.384130,-0.079795,-0.057900,1.110343,0.999949,0.008541,-0.005425,0.000351,-0.033115,-0.008745,1.366738
1790767661.397047,0.017437,0.007142,0.024477,0.002175,0.006395,8.661323,-0.035585,0.459091,-0.887676,-0.035931,-0.013079,1.384130,-0.079795,-0.057900,1.110343,0.999949,0.008541,-0.005425,0.000351,-0.033115,-0.008745,1.366738
1790767661.400779,0.015929,0.005789,0.024443,0.007014,0.002842,8.667453,-0.035585,0.459091,-0.887676,-0.035931,-0.013079,1.384130,-0.079795,-0.057900,1.110343,0.999949,0.008541,-0.005425,0.000351,-0.033115,-0.008745,1.366738
1790767661.405634,0.015523,0.008039,0.023509,0.007727,0.003537,8.667575,-0.035453,0.459121,-0.887666,-0.035931,-0.013079,1.384130,-0.079795,-0.057900,1.110343,0.999948,0.008707,-0.005364,0.000592,-0.034755,-0.009846,1.388765
1790767661.409069,0.017736,0.008535,0.023613,0.014823,0.000456,8.657199,-0.035453,0.459121,-0.887666,-0.035931,-0.013079,1.384130,-0.079795,-0.057900,1.110343,0.999948,0.008707,-0.005364,0.000592,-0.034755,-0.009846,1.388765
1790767661.412920,0.013864,0.008200,0.023511,0.008305,0.010747,8.658368,-0.035125,0.459330,-0.887571,-0.035931,-0.013079,1.384130,-0.079795,-0.057900,1.110343,0.999948,0.008707,-0.005364,0.000592,-0.034755,-0.009846,1.388765
1790767661.417020,0.013350,0.008864,0.025762,0.004476,-0.000601,8.681612,-0.035125,0.459330,-0.887571,-0.035931,-0.013079,1.384130,-0.079795,-0.057900,1.110343,0.999948,0.008707,-0.005364,0.000592,-0.034755,-0.009846,1.388765
1790767661.420953,0.012737,0.009834,0.023402,0.002497,-0.001595,8.671114,-0.035125,0.459330,-0.887571,-0.038526,-0.015016,1.419009,-0.082529,-0.062581,1.074125,0.999948,0.008707,-0.005364,0.000592,-0.034755,-0.009846,1.388765
1790767661.426014,0.010706,0.009836,0.023767,0.002089,0.008620,8.697197,-0.035077,0.459246,-0.887617,-0.038526,-0.015016,1.419009,-0.082529,-0.062581,1.074125,0.999947,0.008839,-0.005277,0.000836,-0.036442,-0.011022,1.410339
1790767661.429747,0.011053,0.009855,0.025040,0.002376,0.004494,8.694877,-0.035077,0.459246,-0.887617,-0.038526,-0.015016,1.419009,-0.082529,-0.062581,1.074125,0.999947,0.008839,-0.005277,0.000836,-0.036442,-0.011022,1.410339
1790767661.433731,0.009554,0.011843,0.025328,0.006871,0.014121,8.689255,-0.035062,0.459210,-0.887636,-0.038526,-0.015016,1.419009,-0.082529,-0.062581,1.074125,0.999947,0.008839,-0.005277,0.000836,-0.036442,-0.011022,1.410339
1790767661.440057,0.009348,0.011029,0.024685,0.000594,0.002554,8.668783,-0.035062,0.459210,-0.887636,-0.038526,-0.015016,1.419009,-0.082529,-0.062581,1.074125,0.999947,0.008839,-0.005277,0.000836,-0.036442,-0.011022,1.410339
1790767661.442468,0.008976,0.011223,0.024306,-0.005541,0.004168,8.676425,-0.035062,0.459210,-0.887636,-0.038526,-0.015016,1.419009,-0.082529,-0.062581,1.074125,0.999947,0.008839,-0.005277,0.000836,-0.036442,-0.011022,1.410339
1790767661.446469,0.008731,0.010766,0.024397,0.017898,0.004893,8.664300,-0.035201,0.458889,-0.887796,-0.038526,-0.015016,1.419009,-0.082529,-0.062581,1.074125,0.999946,0.008939,-0.005167,0.001084,-0.038173,-0.012273,1.431463
1790767661.449838,0.008420,0.014488,0.026429,0.020796,0.003932,8.665089,-0.035201,0.458889,-0.887796,-0.038526,-0.015016,1.419009,-0.082529,-0.062581,1.074125,0.999946,0.008939,-0.005167,0.001084,-0.038173,-0.012273,1.431463
1790767661.454630,0.009261,0.011198,0.024903,0.002139,-0.000359,8.662996,-0.035310,0.458695,-0.887892,-0.041207,-0.017105,1.452735,-0.085170,-0.067359,1.038105,0.999946,0.008939,-0.005167,0.001084,-0.038173,-0.012273,1.431463
1790767661.457701,0.007260,0.013807,0.026252,0.019665,0.016317,8.666787,-0.035310,0.458695,-0.887892,-0.041207,-0.017105,1.452735,-0.085170,-0.067359,1.038105,0.999946,0.008939,-0.005167,0.001084,-0.038173,-0.012273,1.431463
1790767661.461371,0.007181,0.013486,0.023545,0.000938,0.006877,8.671362,-0.035310,0.458695,-0.887892,-0.041207,-0.017105,1.452735,-0.085170,-0.067359,1.038105,0.999946,0.008939,-0.005167,0.001084,-0.038173,-0.012273,1.431463
1790767661.465353,0.008208,0.012753,0.025614,0.001182,0.002854,8.666096,-0.035037,0.458701,-0.887899,-0.041207,-0.017105,1.452735,-0.085170,-0.067359,1.038105,0.999946,0.009019,-0.005041,0.001336,-0.039945,-0.013593,1.452135
1790767661.469321,0.007600,0.012918,0.024743,0.008142,-0.000874,8.648143,-0.035037,0.458701,-0.887899,-0.041207,-0.017105,1.452735,-0.085170,-0.067359,1.038105,0.999946,0.009019,-0.005041,0.001336,-0.039945,-0.013593,1.452135
1790767661.473490,0.005993,0.012999,0.024200,0.004716,0.032862,8.658351,-0.035004,0.458162,-0.888179,-0.041207,-0.017105,1.452735,-0.085170,-0.067359,1.038105,0.999946,0.009019,-0.005041,0.001336,-0.039945,-0.013593,1.452135
1790767661.477287,0.005843,0.014269,0.025252,0.014348,0.002186,8.651879,-0.035004,0.458162,-0.888179,-0.041207,-0.017105,1.452735,-0.085170,-0.067359,1.038105,0.999946,0.009019,-0.005041,0.001336,-0.039945,-0.013593,1.452135
1790767661.481212,0.006838,0.014705,0.026038,0.011324,0.008708,8.674936,-0.035004,0.458162,-0.888179,-0.041207,-0.017105,1.452735,-0.085170,-0.067359,1.038105,0.999946,0.009019,-0.005041,0.001336,-0.039945,-0.013593,1.452135
1790767661.485512,0.005721,0.012911,0.025917,-0.001279,0.006401,8.676772,-0.034995,0.458400,-0.888057,-0.043970,-0.019348,1.485300,-0.087681,-0.072185,1.001701,0.999945,0.009088,-0.004908,0.001592,-0.041751,-0.014979,1.472351
1790767661.489651,0.006833,0.012717,0.025018,-0.010489,0.013029,8.678162,-0.034995,0.458400,-0.888057,-0.043970,-0.019348,1.485300,-0.087681,-0.072185,1.001701,0.999945,0.009088,-0.004908,0.001592,-0.041751,-0.014979,1.472351
1790767661.493625,0.006611,0.013014,0.025723,0.009185,-0.000392,8.656849,-0.035091,0.458523,-0.887989,-0.043970,-0.019348,1.485300,-0.087681,-0.072185,1.001701,0.999945,0.009088,-0.004908,0.001592,-0.041751,-0.014979,1.472351
1790767661.496989,0.006215,0.013251,0.025813,0.012049,0.006019,8.644455,-0.035091,0.458523,-0.887989,-0.043970,-0.019348,1.485300,-0.087681,-0.072185,1.001701,0.999945,0.009088,-0.004908,0.001592,-0.041751,-0.014979,1.472351
1790767661.501431,0.006820,0.013536,0.025376,0.010789,0.013041,8.637893,-0.035091,0.458523,-0.887989,-0.043970,-0.019348,1.485300,-0.087681,-0.072185,1.001701,0.999945,0.009088,-0.004908,0.001592,-0.041751,-0.014979,1.472351
1790767661.505565,0.005582,0.014107,0.027290,0.008721,0.008726,8.650052,-0.034808,0.458226,-0.888154,-0.043970,-0.019348,1.485300,-0.087681,-0.072185,1.001701,0.999945,0.009152,-0.004773,0.001853,-0.043589,-0.016428,1.492110
1790767661.509517,0.006529,0.013192,0.025485,0.020990,0.003097,8.672678,-0.034808,0.458226,-0.888154,-0.043970,-0.019348,1.485300,-0.087681,-0.072185,1.001701,0.999945,0.009152,-0.004773,0.001853,-0.043589,-0.016428,1.492110
1790767661.513652,0.005853,0.013778,0.026567,0.018171,-0.002126,8.656470,-0.034921,0.458080,-0.888225,-0.043970,-0.019348,1.485300,-0.087681,-0.072185,1.001701,0.999945,0.009152,-0.004773,0.001853,-0.043589,-0.016428,1.492110
1790767661.517177,0.006236,0.013309,0.027270,0.010515,0.004546,8.646613,-0.034921,0.458080,-0.888225,-0.043970,-0.019348,1.485300,-0.087681,-0.072185,1.001701,0.999945,0.009152,-0.004773,0.001853,-0.043589,-0.016428,1.492110
1790767661.521293,0.007233,0.013441,0.026250,0.001844,0.015250,8.659509,-0.034921,0.458080,-0.888225,-0.047171,-0.022056,1.520536,-0.090341,-0.077654,0.960395,0.999945,0.009152,-0.004773,0.001853,-0.043589,-0.016428,1.492110
1790767661.525794,0.006134,0.013472,0.027069,0.012565,0.009842,8.657849,-0.034539,0.457877,-0.888345,-0.047171,-0.022056,1.520536,-0.090341,-0.077654,0.960395,0.999945,0.009213,-0.004638,0.002119,-0.045456,-0.017939,1.511410
1790767661.529160,0.004415,0.014623,0.027512,0.006724,0.001907,8.644200,-0.034539,0.457877,-0.888345,-0.047171,-0.022056,1.520536,-0.090341,-0.077654,0.960395,0.999945,0.009213,-0.004638,0.002119,-0.045456,-0.017939,1.511410
1790767661.533513,0.005369,0.013321,0.025739,0.004605,-0.002048,8.650394,-0.034426,0.457635,-0.888473,-0.047171,-0.022056,1.520536,-0.090341,-0.077654,0.960395,0.999945,0.009213,-0.004638,0.002119,-0.045456,-0.017939,1.511410
1790767661.538736,0.004930,0.013202,0.026978,0.005116,0.005883,8.643668,-0.034426,0.457635,-0.888473,-0.047171,-0.022056,1.520536,-0.090341,-0.077654,0.960395,0.999945,0.009213,-0.004638,0.002119,-0.045456,-0.017939,1.511410
1790767661.541604,0.005808,0.013476,0.027813,0.010099,0.012460,8.636499,-0.034426,0.457635,-0.888473,-0.047171,-0.022056,1.520536,-0.090341,-0.077654,0.960395,0.999945,0.009213,-0.004638,0.002119,-0.045456,-0.017939,1.511410
1790767661.545126,0.005777,0.014190,0.026461,0.018341,0.011398,8.650172,-0.034088,0.458037,-0.888279,-0.047171,-0.022056,1.520536,-0.090341,-0.077654,0.960395,0.999944,0.009270,-0.004505,0.002391,-0.047350,-0.019514,1.530248
1790767661.548934,0.006275,0.011503,0.026337,0.002330,0.013838,8.646442,-0.034088,0.458037,-0.888279,-0.047171,-0.022056,1.520536,-0.090341,-0.077654,0.960395,0.999944,0.009270,-0.004505,0.002391,-0.047350,-0.019514,1.530248
1790767661.552629,0.004486,0.013682,0.027810,-0.001868,0.008226,8.654489,-0.034696,0.457490,-0.888538,-0.050094,-0.024629,1.550603,-0.092563,-0.082549,0.923469,0.999944,0.009270,-0.004505,0.002391,-0.047350,-0.019514,1.530248
1790767661.557262,0.005202,0.013576,0.028154,0.016065,0.020222,8.657023,-0.034696,0.457490,-0.888538,-0.050094,-0.024629,1.550603,-0.092563,-0.082549,0.923469,0.999944,0.009270,-0.004505,0.002391,-0.047350,-0.019514,1.530248
1790767661.560877,0.006247,0.013882,0.028877,0.004196,0.013474,8.670983,-0.034696,0.457490,-0.888538,-0.050094,-0.024629,1.550603,-0.092563,-0.082549,0.923469,0.999944,0.009270,-0.004505,0.002391,-0.047350,-0.019514,1.530248
1790767661.564950,0.005561,0.012317,0.028166,0.006980,0.005943,8.688000,-0.034264,0.457529,-0.888534,-0.050094,-0.024629,1.550603,-0.092563,-0.082549,0.923469,0.999943,0.009324,-0.004377,0.002670,-0.049270,-0.021150,1.548627
1790767661.568891,0.005934,0.014175,0.026865,0.012948,0.009478,8.682362,-0.034264,0.457529,-0.888534,-0.050094,-0.024629,1.550603,-0.092563,-0.082549,0.923469,0.999943,0.009324,-0.004377,0.002670,-0.049270,-0.021150,1.548627
1790767661.573013,0.005218,0.012332,0.027641,0.006747,0.006714,8.675364,-0.033777,0.457241,-0.888701,-0.050094,-0.024629,1.550603,-0.092563,-0.082549,0.923469,0.999943,0.009324,-0.004377,0.002670,-0.049270,-0.021150,1.548627
1790767661.576798,0.004532,0.010686,0.027741,0.005829,-0.006216,8.676292,-0.033777,0.457241,-0.888701,-0.050094,-0.024629,1.550603,-0.092563,-0.082549,0.923469,0.999943,0.009324,-0.004377,0.002670,-0.049270,-0.021150,1.548627
1790767661.580682,0.004807,0.013115,0.028917,0.000319,0.002500,8.679776,-0.033777,0.457241,-0.888701,-0.050094,-0.024629,1.550603,-0.092563,-0.082549,0.923469,0.999943,0.009324,-0.004377,0.002670,-0.049270,-0.021150,1.548627
1790767661.586599,0.004608,0.012500,0.029613,0.013839,0.005263,8.672081,-0.034059,0.457469,-0.888573,-0.053085,-0.027360,1.579507,-0.094665,-0.087491,0.887526,0.999943,0.009374,-0.004254,0.002954,-0.051213,-0.022851,1.566557
1790767661.588903,0.005883,0.011727,0.027255,0.007184,0.007934,8.681790,-0.034059,0.457469,-0.888573,-0.053085,-0.027360,1.579507,-0.094665,-0.087491,0.887526,0.999943,0.009374,-0.004254,0.002954,-0.051213,-0.022851,1.566557
1790767661.592939,0.005628,0.013328,0.028191,0.013836,0.005614,8.684290,-0.034593,0.457366,-0.888605,-0.053085,-0.027360,1.579507,-0.094665,-0.087491,0.887526,0.999943,0.009374,-0.004254,0.002954,-0.051213,-0.022851,1.566557
1790767661.597142,0.005971,0.012481,0.026217,0.011464,-0.000704,8.684149,-0.034593,0.457366,-0.888605,-0.053085,-0.027360,1.579507,-0.094665,-0.087491,0.887526,0.999943,0.009374,-0.004254,0.002954,-0.051213,-0.022851,1.566557
1790767661.603495,0.002747,0.014112,0.029222,0.005486,-0.004330,8.700546,-0.034593,0.457366,-0.888605,-0.053085,-0.027360,1.579507,-0.094665,-0.087491,0.887526,0.999943,0.009374,-0.004254,0.002954,-0.051213,-0.022851,1.566557
1790767661.605591,0.002898,0.014768,0.026987,0.007808,0.006144,8.677083,-0.033857,0.457290,-0.888673,-0.053085,-0.027360,1.579507,-0.094665,-0.087491,0.887526,0.999942,0.009409,-0.004128,0.003237,-0.053183,-0.024621,1.584039
1790767661.609079,0.001809,0.013255,0.027745,0.005103,-0.003421,8.674352,-0.033857,0.457290,-0.888673,-0.053085,-0.027360,1.579507,-0.094665,-0.087491,0.887526,0.999942,0.009409,-0.004128,0.003237,-0.053183,-0.024621,1.584039
1790767661.613440,-0.001413,0.016783,0.027868,0.008732,0.008103,8.658801,-0.033794,0.457190,-0.888727,-0.053085,-0.027360,1.579507,-0.094665,-0.087491,0.887526,0.999942,0.009409,-0.004128,0.003237,-0.053183,-0.024621,1.584039
1790767661.617616,-0.001264,0.015742,0.029506,0.010207,0.008540,8.651193,-0.033794,0.457190,-0.888727,-0.056141,-0.030250,1.607263,-0.096650,-0.092464,0.851617,0.999942,0.009409,-0.004128,0.003237,-0.053183,-0.024621,1.584039
1790767661.622249,-0.001162,0.015573,0.027976,0.015168,-0.000322,8.670645,-0.033794,0.457190,-0.888727,-0.056141,-0.030250,1.607263,-0.096650,-0.092464,0.851617,0.999942,0.009409,-0.004128,0.003237,-0.053183,-0.024621,1.584039
1790767661.625444,-0.002779,0.014144,0.028575,0.013968,0.002975,8.671494,-0.033862,0.456907,-0.888870,-0.056141,-0.030250,1.607263,-0.096650,-0.092464,0.851617,0.999942,0.009399,-0.003982,0.003518,-0.055187,-0.026475,1.601071
1790767661.629097,-0.004213,0.017348,0.027534,0.020529,0.006438,8.669755,-0.033862,0.456907,-0.888870,-0.056141,-0.030250,1.607263,-0.096650,-0.092464,0.851617,0.999942,0.009399,-0.003982,0.003518,-0.055187,-0.026475,1.601071
1790767661.632979,-0.002942,0.016917,0.028015,0.005261,0.014927,8.673443,-0.033603,0.456828,-0.888920,-0.056141,-0.030250,1.607263,-0.096650,-0.092464,0.851617,0.999942,0.009399,-0.003982,0.003518,-0.055187,-0.026475,1.601071
1790767661.637833,-0.005895,0.018033,0.028091,0.014050,0.018892,8.683621,-0.033603,0.456828,-0.888920,-0.056141,-0.030250,1.607263,-0.096650,-0.092464,0.851617,0.999942,0.009399,-0.003982,0.003518,-0.055187,-0.026475,1.601071
1790767661.641436,-0.005669,0.016702,0.028914,0.014545,0.014369,8.653838,-0.033603,0.456828,-0.888920,-0.056141,-0.030250,1.607263,-0.096650,-0.092464,0.851617,0.999942,0.009399,-0.003982,0.003518,-0.055187,-0.026475,1.601071
1790767661.645171,-0.007628,0.019764,0.027928,0.005273,0.007080,8.665861,-0.033387,0.456733,-0.888977,-0.056141,-0.030250,1.607263,-0.096650,-0.092464,0.851617,0.999942,0.009341,-0.003810,0.003798,-0.057227,-0.028413,1.617651
1790767661.648681,-0.008647,0.018786,0.026526,0.012864,0.007327,8.674209,-0.033387,0.456733,-0.888977,-0.056141,-0.030250,1.607263,-0.096650,-0.092464,0.851617,0.999942,0.009341,-0.003810,0.003798,-0.057227,-0.028413,1.617651
1790767661.652943,-0.008343,0.018039,0.026538,0.013966,0.007674,8.666432,-0.033349,0.456156,-0.889275,-0.059652,-0.033690,1.637108,-0.098712,-0.098018,0.810898,0.999942,0.009341,-0.003810,0.003798,-0.057227,-0.028413,1.617651
1790767661.657584,-0.008616,0.019747,0.027973,0.002872,0.007212,8.687549,-0.033349,0.456156,-0.889275,-0.059652,-0.033690,1.637108,-0.098712,-0.098018,0.810898,0.999942,0.009341,-0.003810,0.003798,-0.057227,-0.028413,1.617651
1790767661.660856,-0.011342,0.019072,0.026848,0.014324,0.024986,8.669617,-0.033349,0.456156,-0.889275,-0.059652,-0.033690,1.637108,-0.098712,-0.098018,0.810898,0.999942,0.009341,-0.003810,0.003798,-0.057227,-0.028413,1.617651
1790767661.665437,-0.009498,0.019147,0.026699,0.005939,0.015160,8.676586,-0.032927,0.456502,-0.889113,-0.059652,-0.033690,1.637108,-0.098712,-0.098018,0.810898,0.999942,0.009249,-0.003619,0.004074,-0.059298,-0.030430,1.633778
1790767661.668910,-0.011596,0.019546,0.027609,0.011428,0.004626,8.678869,-0.032927,0.456502,-0.889113,-0.059652,-0.033690,1.637108,-0.098712,-0.098018,0.810898,0.999942,0.009249,-0.003619,0.004074,-0.059298,-0.030430,1.633778
1790767661.673288,-0.009263,0.020443,0.027414,0.014210,0.013005,8.677674,-0.032664,0.455876,-0.889444,-0.059652,-0.033690,1.637108,-0.098712,-0.098018,0.810898,0.999942,0.009249,-0.003619,0.004074,-0.059298,-0.030430,1.633778
1790767661.676799,-0.011325,0.019546,0.027947,0.018040,0.006042,8.674441,-0.032664,0.455876,-0.889444,-0.059652,-0.033690,1.637108,-0.098712,-0.098018,0.810898,0.999942,0.009249,-0.003619,0.004074,-0.059298,-0.030430,1.633778
1790767661.680765,-0.012432,0.020795,0.026284,0.003166,0.013969,8.671588,-0.032664,0.455876,-0.889444,-0.059652,-0.033690,1.637108,-0.098712,-0.098018,0.810898,0.999942,0.009249,-0.003619,0.004074,-0.059298,-0.030430,1.633778
1790767661.685026,-0.008689,0.021595,0.028297,0.009050,0.016986,8.672633,-0.031974,0.455962,-0.889425,-0.062832,-0.036915,1.662408,-0.100357,-0.102853,0.774852,0.999943,0.009138,-0.003419,0.004349,-0.061395,-0.032516,1.649454
1790767661.689384,-0.012032,0.019703,0.027275,-0.000613,0.019031,8.687522,-0.031974,0.455962,-0.889425,-0.062832,-0.036915,1.662408,-0.100357,-0.102853,0.774852,0.999943,0.009138,-0.003419,0.004349,-0.061395,-0.032516,1.649454
1790767661.693271,-0.011988,0.021938,0.025711,0.010184,0.007651,8.680058,-0.031776,0.455871,-0.889478,-0.062832,-0.036915,1.662408,-0.100357,-0.102853,0.774852,0.999943,0.009138,-0.003419,0.004349,-0.061395,-0.032516,1.649454
1790767661.696962,-0.011960,0.018581,0.027391,0.011424,0.000131,8.679053,-0.031776,0.455871,-0.889478,-0.062832,-0.036915,1.662408,-0.100357,-0.102853,0.774852,0.999943,0.009138,-0.003419,0.004349,-0.061395,-0.032516,1.649454
1790767661.701240,-0.013165,0.020362,0.028314,0.015143,0.008664,8.697554,-0.031776,0.455871,-0.889478,-0.062832,-0.036915,1.662408,-0.100357,-0.102853,0.774852,0.999943,0.009138,-0.003419,0.004349,-0.061395,-0.032516,1.649454
1790767661.705853,-0.012402,0.018544,0.027868,0.011202,0.017526,8.683322,-0.032214,0.455560,-0.889622,-0.062832,-0.036915,1.662408,-0.100357,-0.102853,0.774852,0.999944,0.009014,-0.003217,0.004621,-0.063511,-0.034669,1.664681
1790767661.713669,-0.013328,0.019805,0.025729,0.025206,0.007086,8.672752,-0.031878,0.455481,-0.889675,-0.062832,-0.036915,1.662408,-0.100357,-0.102853,0.774852,0.999944,0.009014,-0.003217,0.004621,-0.063511,-0.034669,1.664681
1790767661.715094,-0.013328,0.019805,0.025729,0.025206,0.007086,8.672752,-0.031878,0.455481,-0.889675,-0.062832,-0.036915,1.662408,-0.100357,-0.102853,0.774852,0.999944,0.009014,-0.003217,0.004621,-0.063511,-0.034669,1.664681
1790767661.717238,-0.012965,0.020547,0.027050,0.015951,-0.002023,8.681144,-0.031878,0.455481,-0.889675,-0.066061,-0.040292,1.686559,-0.101811,-0.107566,0.739030,0.999944,0.009014,-0.003217,0.004621,-0.063511,-0.034669,1.664681
1790767661.722410,-0.013098,0.021474,0.025398,0.006449,0.008365,8.677410,-0.031878,0.455481,-0.889675,-0.066061,-0.040292,1.686559,-0.101811,-0.107566,0.739030,0.999944,0.009014,-0.003217,0.004621,-0.063511,-0.034669,1.664681
1790767661.725387,-0.013679,0.021320,0.027552,0.005023,0.023039,8.701631,-0.031960,0.455138,-0.889847,-0.066061,-0.040292,1.686559,-0.101811,-0.107566,0.739030,0.999944,0.008881,-0.003016,0.004889,-0.065645,-0.036884,1.679460
1790767661.728969,-0.013067,0.020695,0.025342,0.008944,0.003420,8.699846,-0.031960,0.455138,-0.889847,-0.066061,-0.040292,1.686559,-0.101811,-0.107566,0.739030,0.999944,0.008881,-0.003016,0.004889,-0.065645,-0.036884,1.679460
1790767661.733024,-0.013331,0.019048,0.026231,-0.000250,0.004717,8.686751,-0.031107,0.454683,-0.890110,-0.066061,-0.040292,1.686559,-0.101811,-0.107566,0.739030,0.999944,0.008881,-0.003016,0.004889,-0.065645,-0.036884,1.679460
1790767661.737163,-0.012318,0.020323,0.027071,0.013060,0.013919,8.690393,-0.031107,0.454683,-0.890110,-0.066061,-0.040292,1.686559,-0.101811,-0.107566,0.739030,0.999944,0.008881,-0.003016,0.004889,-0.065645,-0.036884,1.679460
1790767661.741192,-0.015057,0.019457,0.027056,0.009774,0.010031,8.705722,-0.031107,0.454683,-0.890110,-0.066061,-0.040292,1.686559,-0.101811,-0.107566,0.739030,0.999944,0.008881,-0.003016,0.004889,-0.065645,-0.036884,1.679460
1790767661.745040,-0.014116,0.017895,0.025321,0.014307,0.005808,8.688250,-0.031070,0.454615,-0.890146,-0.066061,-0.040292,1.686559,-0.101811,-0.107566,0.739030,0.999945,0.008742,-0.002820,0.005153,-0.067792,-0.039160,1.693796
1790767661.748769,-0.014188,0.020633,0.026381,0.006964,0.005396,8.688827,-0.031070,0.454615,-0.890146,-0.069332,-0.043817,1.709570,-0.103079,-0.112147,0.703611,0.999945,0.008742,-0.002820,0.005153,-0.067792,-0.039160,1.693796
1790767661.752646,-0.013525,0.018997,0.024366,0.018057,0.017577,8.704524,-0.030903,0.454750,-0.890083,-0.069332,-0.043817,1.709570,-0.103079,-0.112147,0.703611,0.999945,0.008742,-0.002820,0.005153,-0.067792,-0.039160,1.693796
1790767661.756756,-0.013349,0.020283,0.026832,0.024151,0.013271,8.708786,-0.030903,0.454750,-0.890083,-0.069332,-0.043817,1.709570,-0.103079,-0.112147,0.703611,0.999945,0.008742,-0.002820,0.005153,-0.067792,-0.039160,1.693796
1790767661.760973,-0.013377,0.017474,0.025501,0.005819,0.016846,8.731941,-0.030903,0.454750,-0.890083,-0.069332,-0.043817,1.709570,-0.103079,-0.112147,0.703611,0.999945,0.008742,-0.002820,0.005153,-0.067792,-0.039160,1.693796
1790767661.770287,-0.016076,0.016950,0.023847,0.013564,0.007458,8.740003,-0.030611,0.454621,-0.890159,-0.069332,-0.043817,1.709570,-0.103079,-0.112147,0.703611,0.999945,0.008595,-0.002632,0.005413,-0.069950,-0.041496,1.707692
1790767661.771386,-0.016076,0.016950,0.023847,0.013564,0.007458,8.740003,-0.030611,0.454621,-0.890159,-0.069332,-0.043817,1.709570,-0.103079,-0.112147,0.703611,0.999945,0.008595,-0.002632,0.005413,-0.069950,-0.041496,1.707692
1790767661.777386,-0.013560,0.018529,0.025129,0.018363,0.016110,8.746480,-0.030388,0.454452,-0.890253,-0.069332,-0.043817,1.709570,-0.103079,-0.112147,0.703611,0.999945,0.008595,-0.002632,0.005413,-0.069950,-0.041496,1.707692
1790767661.778161,-0.013560,0.018529,0.025129,0.018363,0.016110,8.746480,-0.030388,0.454452,-0.890253,-0.069332,-0.043817,1.709570,-0.103079,-0.112147,0.703611,0.999945,0.008595,-0.002632,0.005413,-0.069950,-0.041496,1.707692
1790767661.780772,-0.014449,0.018367,0.024960,0.011719,0.012725,8.753519,-0.030388,0.454452,-0.890253,-0.069332,-0.043817,1.709570,-0.103079,-0.112147,0.703611,0.999945,0.008595,-0.002632,0.005413,-0.069950,-0.041496,1.707692
1790767661.785130,-0.018430,0.018920,0.024894,0.004039,0.012372,8.756338,-0.030240,0.454062,-0.890457,-0.073057,-0.047956,1.734124,-0.104299,-0.117148,0.665172,0.999945,0.008437,-0.002450,0.005667,-0.072119,-0.043892,1.721161
1790767661.788612,-0.016611,0.018776,0.023424,0.010191,0.005048,8.752027,-0.030240,0.454062,-0.890457,-0.073057,-0.047956,1.734124,-0.104299,-0.117148,0.665172,0.999945,0.008437,-0.002450,0.005667,-0.072119,-0.043892,1.721161
1790767661.793020,-0.018156,0.016447,0.025316,0.013722,0.014968,8.745457,-0.029822,0.454033,-0.890486,-0.073057,-0.047956,1.734124,-0.104299,-0.117148,0.665172,0.999945,0.008437,-0.002450,0.005667,-0.072119,-0.043892,1.721161
1790767661.796635,-0.018447,0.017932,0.023621,0.006285,0.010670,8.754926,-0.029822,0.454033,-0.890486,-0.073057,-0.047956,1.734124,-0.104299,-0.117148,0.665172,0.999945,0.008437,-0.002450,0.005667,-0.072119,-0.043892,1.721161
1790767661.800454,-0.021099,0.018220,0.024556,0.009371,0.018615,8.747661,-0.029822,0.454033,-0.890486,-0.073057,-0.047956,1.734124,-0.104299,-0.117148,0.665172,0.999945,0.008437,-0.002450,0.005667,-0.072119,-0.043892,1.721161
1790767661.804585,-0.021935,0.020116,0.024666,0.000731,0.011997,8.767120,-0.029387,0.454062,-0.890485,-0.073057,-0.047956,1.734124,-0.104299,-0.117148,0.665172,0.999946,0.008250,-0.002262,0.005910,-0.074303,-0.046358,1.734211
1790767661.809124,-0.019629,0.019190,0.024844,0.028419,0.010108,8.763417,-0.029387,0.454062,-0.890485,-0.073057,-0.047956,1.734124,-0.104299,-0.117148,0.665172,0.999946,0.008250,-0.002262,0.005910,-0.074303,-0.046358,1.734211
1790767661.812739,-0.024693,0.019564,0.023196,0.014465,0.017614,8.775937,-0.029315,0.453886,-0.890577,-0.073057,-0.047956,1.734124,-0.104299,-0.117148,0.665172,0.999946,0.008250,-0.002262,0.005910,-0.074303,-0.046358,1.734211
1790767661.816942,-0.023835,0.021906,0.023601,0.004945,0.026597,8.752968,-0.029315,0.453886,-0.890577,-0.076402,-0.051783,1.754807,-0.105210,-0.121435,0.631775,0.999946,0.008250,-0.002262,0.005910,-0.074303,-0.046358,1.734211
1790767661.821041,-0.025011,0.021324,0.021560,0.007362,0.010467,8.763964,-0.029315,0.453886,-0.890577,-0.076402,-0.051783,1.754807,-0.105210,-0.121435,0.631775,0.999946,0.008250,-0.002262,0.005910,-0.074303,-0.046358,1.734211
1790767661.825132,-0.024869,0.022645,0.022745,0.005140,0.005748,8.749110,-0.028896,0.453596,-0.890739,-0.076402,-0.051783,1.754807,-0.105210,-0.121435,0.631775,0.999947,0.008017,-0.002055,0.006138,-0.076507,-0.048899,1.746843
1790767661.828675,-0.024681,0.021317,0.022271,0.012957,0.010977,8.747796,-0.028896,0.453596,-0.890739,-0.076402,-0.051783,1.754807,-0.105210,-0.121435,0.631775,0.999947,0.008017,-0.002055,0.006138,-0.076507,-0.048899,1.746843
1790767661.833537,-0.026443,0.023166,0.019865,0.008207,0.013613,8.757772,-0.028750,0.453683,-0.890699,-0.076402,-0.051783,1.754807,-0.105210,-0.121435,0.631775,0.999947,0.008017,-0.002055,0.006138,-0.076507,-0.048899,1.746843
1790767661.837253,-0.028271,0.022474,0.019787,0.003957,0.017643,8.759819,-0.028750,0.453683,-0.890699,-0.076402,-0.051783,1.754807,-0.105210,-0.121435,0.631775,0.999947,0.008017,-0.002055,0.006138,-0.076507,-0.048899,1.746843
1790767661.840829,-0.028857,0.022693,0.019982,0.013211,0.006366,8.761419,-0.028750,0.453683,-0.890699,-0.076402,-0.051783,1.754807,-0.105210,-0.121435,0.631775,0.999947,0.008017,-0.002055,0.006138,-0.076507,-0.048899,1.746843
1790767661.845268,-0.029162,0.023102,0.020923,0.002254,0.008692,8.753588,-0.028211,0.453524,-0.890798,-0.076402,-0.051783,1.754807,-0.105210,-0.121435,0.631775,0.999948,0.007740,-0.001830,0.006348,-0.078728,-0.051512,1.759059
1790767661.849212,-0.029978,0.022930,0.019986,-0.000388,0.003852,8.758167,-0.028211,0.453524,-0.890798,-0.079772,-0.055743,1.774423,-0.105931,-0.125495,0.598452,0.999948,0.007740,-0.001830,0.006348,-0.078728,-0.051512,1.759059
1790767661.853140,-0.028895,0.025175,0.020353,0.014566,0.021844,8.768256,-0.027984,0.452839,-0.891153,-0.079772,-0.055743,1.774423,-0.105931,-0.125495,0.598452,0.999948,0.007740,-0.001830,0.006348,-0.078728,-0.051512,1.759059
1790767661.857518,-0.031507,0.022874,0.018167,0.007896,0.015676,8.763263,-0.027984,0.452839,-0.891153,-0.079772,-0.055743,1.774423,-0.105931,-0.125495,0.598452,0.999948,0.007740,-0.001830,0.006348,-0.078728,-0.051512,1.759059
1790767661.861029,-0.030696,0.024196,0.017799,0.017615,-0.002066,8.760039,-0.027984,0.452839,-0.891153,-0.079772,-0.055743,1.774423,-0.105931,-0.125495,0.598452,0.999948,0.007740,-0.001830,0.006348,-0.078728,-0.051512,1.759059
1790767661.864849,-0.032367,0.024037,0.016483,0.002279,0.003249,8.775988,-0.026926,0.452740,-0.891236,-0.079772,-0.055743,1.774423,-0.105931,-0.125495,0.598452,0.999950,0.007433,-0.001594,0.006539,-0.080962,-0.054189,1.770859
1790767661.868856,-0.030667,0.024388,0.017672,0.007193,0.013117,8.781376,-0.026926,0.452740,-0.891236,-0.079772,-0.055743,1.774423,-0.105931,-0.125495,0.598452,0.999950,0.007433,-0.001594,0.006539,-0.080962,-0.054189,1.770859
1790767661.873215,-0.032062,0.023221,0.016865,0.011733,0.016534,8.777082,-0.027171,0.452462,-0.891370,-0.079772,-0.055743,1.774423,-0.105931,-0.125495,0.598452,0.999950,0.007433,-0.001594,0.006539,-0.080962,-0.054189,1.770859
1790767661.877174,-0.030468,0.023929,0.015896,0.008160,0.014240,8.779519,-0.027171,0.452462,-0.891370,-0.079772,-0.055743,1.774423,-0.105931,-0.125495,0.598452,0.999950,0.007433,-0.001594,0.006539,-0.080962,-0.054189,1.770859
1790767661.881276,-0.032793,0.023975,0.016590,0.005092,0.006241,8.793850,-0.027171,0.452462,-0.891370,-0.083162,-0.059828,1.792978,-0.106439,-0.129272,0.565568,0.999950,0.007433,-0.001594,0.006539,-0.080962,-0.054189,1.770859
1790767661.885077,-0.032982,0.023816,0.015916,0.013073,0.007415,8.801347,-0.026480,0.452428,-0.891408,-0.083162,-0.059828,1.792978,-0.106439,-0.129272,0.565568,0.999951,0.007105,-0.001355,0.006704,-0.083205,-0.056923,1.782249
1790767661.889103,-0.034745,0.023769,0.016057,0.004446,0.012442,8.820231,-0.026480,0.452428,-0.891408,-0.083162,-0.059828,1.792978,-0.106439,-0.129272,0.565568,0.999951,0.007105,-0.001355,0.006704,-0.083205,-0.056923,1.782249
1790767661.893075,-0.034380,0.026024,0.012125,0.017589,0.012998,8.818280,-0.026912,0.451913,-0.891656,-0.083162,-0.059828,1.792978,-0.106439,-0.129272,0.565568,0.999951,0.007105,-0.001355,0.006704,-0.083205,-0.056923,1.782249
1790767661.896800,-0.034749,0.024748,0.012710,0.004543,0.016390,8.815534,-0.026912,0.451913,-0.891656,-0.083162,-0.059828,1.792978,-0.106439,-0.129272,0.565568,0.999951,0.007105,-0.001355,0.006704,-0.083205,-0.056923,1.782249
1790767661.900743,-0.034035,0.025409,0.012661,0.001655,0.011181,8.810131,-0.026912,0.451913,-0.891656,-0.083162,-0.059828,1.792978,-0.106439,-0.129272,0.565568,0.999951,0.007105,-0.001355,0.006704,-0.083205,-0.056923,1.782249
1790767661.906362,-0.035612,0.025558,0.013116,0.001470,0.003547,8.823337,-0.025867,0.451806,-0.891741,-0.083162,-0.059828,1.792978,-0.106439,-0.129272,0.565568,0.999953,0.006766,-0.001114,0.006841,-0.085452,-0.059708,1.793242
1790767661.909254,-0.034072,0.023105,0.010642,0.006322,0.008908,8.826337,-0.025867,0.451806,-0.891741,-0.083162,-0.059828,1.792978,-0.106439,-0.129272,0.565568,0.999953,0.006766,-0.001114,0.006841,-0.085452,-0.059708,1.793242
1790767661.913211,-0.033871,0.024157,0.011449,0.009946,0.017473,8.830194,-0.025402,0.451604,-0.891857,-0.083162,-0.059828,1.792978,-0.106439,-0.129272,0.565568,0.999953,0.006766,-0.001114,0.006841,-0.085452,-0.059708,1.793242
1790767661.916995,-0.036515,0.025410,0.011540,0.018309,0.021298,8.841418,-0.025402,0.451604,-0.891857,-0.086989,-0.064562,1.812628,-0.106751,-0.133165,0.530205,0.999953,0.006766,-0.001114,0.006841,-0.085452,-0.059708,1.793242
1790767661.921330,-0.035069,0.025691,0.009524,0.012427,0.004677,8.833140,-0.025402,0.451604,-0.891857,-0.086989,-0.064562,1.812628,-0.106751,-0.133165,0.530205,0.999953,0.006766,-0.001114,0.006841,-0.085452,-0.059708,1.793242
1790767661.925534,-0.035542,0.024302,0.008797,0.008811,0.001125,8.849907,-0.025613,0.451694,-0.891805,-0.086989,-0.064562,1.812628,-0.106751,-0.133165,0.530205,0.999955,0.006416,-0.000875,0.006940,-0.087700,-0.062540,1.803844
1790767661.929008,-0.035096,0.024551,0.008024,-0.002305,0.016917,8.838481,-0.025613,0.451694,-0.891805,-0.086989,-0.064562,1.812628,-0.106751,-0.133165,0.530205,0.999955,0.006416,-0.000875,0.006940,-0.087700,-0.062540,1.803844
1790767661.933257,-0.036103,0.024190,0.007061,0.018530,-0.000172,8.832908,-0.024739,0.451102,-0.892130,-0.086989,-0.064562,1.812628,-0.106751,-0.133165,0.530205,0.999955,0.006416,-0.000875,0.006940,-0.087700,-0.062540,1.803844
1790767661.938918,-0.035754,0.023520,0.004433,0.016693,0.006064,8.851981,-0.024739,0.451102,-0.892130,-0.086989,-0.064562,1.812628,-0.106751,-0.133165,0.530205,0.999955,0.006416,-0.000875,0.006940,-0.087700,-0.062540,1.803844
1790767661.941139,-0.037119,0.025603,0.004791,0.006241,0.011039,8.852109,-0.024739,0.451102,-0.892130,-0.086989,-0.064562,1.812628,-0.106751,-0.133165,0.530205,0.999955,0.006416,-0.000875,0.006940,-0.087700,-0.062540,1.803844
1790767661.945408,-0.035096,0.024561,0.003900,0.015300,0.006739,8.831451,-0.024643,0.451262,-0.892051,-0.086989,-0.064562,1.812628,-0.106751,-0.133165,0.530205,0.999957,0.006058,-0.000635,0.006994,-0.089951,-0.065415,1.814064
1790767661.948952,-0.035922,0.025780,0.002556,0.012024,0.008136,8.848796,-0.024643,0.451262,-0.892051,-0.090397,-0.068880,1.829045,-0.106799,-0.136283,0.499751,0.999957,0.006058,-0.000635,0.006994,-0.089951,-0.065415,1.814064
1790767661.952831,-0.036214,0.024838,-0.001204,0.014623,0.017599,8.853836,-0.024176,0.451073,-0.892159,-0.090397,-0.068880,1.829045,-0.106799,-0.136283,0.499751,0.999957,0.006058,-0.000635,0.006994,-0.089951,-0.065415,1.814064
1790767661.956943,-0.037014,0.024079,-0.001214,0.003734,0.002442,8.886263,-0.024176,0.451073,-0.892159,-0.090397,-0.068880,1.829045,-0.106799,-0.136283,0.499751,0.999957,0.006058,-0.000635,0.006994,-0.089951,-0.065415,1.814064
1790767661.961094,-0.038934,0.024076,-0.000788,0.006417,0.014282,8.869122,-0.024176,0.451073,-0.892159,-0.090397,-0.068880,1.829045,-0.106799,-0.136283,0.499751,0.999957,0.006058,-0.000635,0.006994,-0.089951,-0.065415,1.814064
1790767661.965127,-0.037361,0.025544,-0.003923,0.009056,0.015427,8.863904,-0.023857,0.450583,-0.892416,-0.090397,-0.068880,1.829045,-0.106799,-0.136283,0.499751,0.999959,0.005692,-0.000393,0.006992,-0.092201,-0.068332,1.823908
1790767661.968920,-0.037052,0.024913,-0.003980,0.001857,0.015599,8.874924,-0.023857,0.450583,-0.892416,-0.090397,-0.068880,1.829045,-0.106799,-0.136283,0.499751,0.999959,0.005692,-0.000393,0.006992,-0.092201,-0.068332,1.823908
1790767661.973385,-0.035948,0.024254,-0.006056,0.006578,0.018426,8.877566,-0.023699,0.450329,-0.892548,-0.090397,-0.068880,1.829045,-0.106799,-0.136283,0.499751,0.999959,0.005692,-0.000393,0.006992,-0.092201,-0.068332,1.823908
1790767661.977401,-0.037701,0.024709,-0.006887,0.011231,0.014418,8.883352,-0.023699,0.450329,-0.892548,-0.090397,-0.068880,1.829045,-0.106799,-0.136283,0.499751,0.999959,0.005692,-0.000393,0.006992,-0.092201,-0.068332,1.823908
1790767661.980774,-0.037975,0.023621,-0.008098,0.015655,0.026546,8.886577,-0.023699,0.450329,-0.892548,-0.093802,-0.073293,1.844503,-0.106631,-0.139065,0.470203,0.999959,0.005692,-0.000393,0.006992,-0.092201,-0.068332,1.823908
1790767661.985112,-0.037238,0.026914,-0.009832,0.016020,0.002544,8.892591,-0.023398,0.450655,-0.892392,-0.093802,-0.073293,1.844503,-0.106631,-0.139065,0.470203,0.999962,0.005322,-0.000143,0.006924,-0.094453,-0.071285,1.833383
1790767661.989210,-0.036249,0.025976,-0.010763,0.007535,0.009563,8.902618,-0.023398,0.450655,-0.892392,-0.093802,-0.073293,1.844503,-0.106631,-0.139065,0.470203,0.999962,0.005322,-0.000143,0.006924,-0.094453,-0.071285,1.833383
1790767661.993255,-0.037856,0.025541,-0.013219,0.019829,0.014890,8.895800,-0.023139,0.450097,-0.892680,-0.093802,-0.073293,1.844503,-0.106631,-0.139065,0.470203,0.999962,0.005322,-0.000143,0.006924,-0.094453,-0.071285,1.833383
1790767661.997158,-0.038779,0.026108,-0.014503,0.010694,0.012457,8.897464,-0.023139,0.450097,-0.892680,-0.093802,-0.073293,1.844503,-0.106631,-0.139065,0.470203,0.999962,0.005322,-0.000143,0.006924,-0.094453,-0.071285,1.833383
1790767662.001076,-0.038929,0.027312,-0.015058,0.005266,0.028156,8.894532,-0.023139,0.450097,-0.892680,-0.093802,-0.073293,1.844503,-0.106631,-0.139065,0.470203,0.999962,0.005322,-0.000143,0.006924,-0.094453,-0.071285,1.833383
1790767662.005321,-0.039539,0.027276,-0.016024,0.020722,0.008865,8.890840,-0.022768,0.449887,-0.892795,-0.093802,-0.073293,1.844503,-0.106631,-0.139065,0.470203,0.999965,0.004941,0.000121,0.006779,-0.096707,-0.074275,1.842497
1790767662.009162,-0.039345,0.027759,-0.020690,0.014892,0.022049,8.891668,-0.022768,0.449887,-0.892795,-0.093802,-0.073293,1.844503,-0.106631,-0.139065,0.470203,0.999965,0.004941,0.000121,0.006779,-0.096707,-0.074275,1.842497
1790767662.013727,-0.039645,0.028676,-0.019665,0.014425,0.031333,8.912792,-0.022460,0.449358,-0.893069,-0.097197,-0.077789,1.859030,-0.106238,-0.141507,0.441341,0.999965,0.004941,0.000121,0.006779,-0.096707,-0.074275,1.842497
1790767662.017523,-0.042030,0.028697,-0.022060,0.010079,0.022089,8.902138,-0.022460,0.449358,-0.893069,-0.097197,-0.077789,1.859030,-0.106238,-0.141507,0.441341,0.999965,0.004941,0.000121,0.006779,-0.096707,-0.074275,1.842497
1790767662.021270,-0.041901,0.029204,-0.022197,0.009643,0.017426,8.915350,-0.022460,0.449358,-0.893069,-0.097197,-0.077789,1.859030,-0.106238,-0.141507,0.441341,0.999965,0.004941,0.000121,0.006779,-0.096707,-0.074275,1.842497
1790767662.025234,-0.041962,0.029604,-0.027086,0.002854,0.015891,8.922511,-0.022490,0.449290,-0.893103,-0.097197,-0.077789,1.859030,-0.106238,-0.141507,0.441341,0.999968,0.004530,0.000407,0.006549,-0.098966,-0.077309,1.851251
1790767662.029041,-0.043224,0.031395,-0.028526,0.010849,0.017838,8.930651,-0.022490,0.449290,-0.893103,-0.097197,-0.077789,1.859030,-0.106238,-0.141507,0.441341,0.999968,0.004530,0.000407,0.006549,-0.098966,-0.077309,1.851251
1790767662.033379,-0.043429,0.031204,-0.030975,0.000199,0.015965,8.928743,-0.021761,0.448931,-0.893301,-0.097197,-0.077789,1.859030,-0.106238,-0.141507,0.441341,0.999968,0.004530,0.000407,0.006549,-0.098966,-0.077309,1.851251
1790767662.038060,-0.043662,0.032190,-0.033893,0.015302,0.014312,8.922228,-0.021761,0.448931,-0.893301,-0.097197,-0.077789,1.859030,-0.106238,-0.141507,0.441341,0.999968,0.004530,0.000407,0.006549,-0.098966,-0.077309,1.851251
1790767662.041222,-0.045671,0.031331,-0.035492,0.013249,0.020670,8.949144,-0.021761,0.448931,-0.893301,-0.097197,-0.077789,1.859030,-0.106238,-0.141507,0.441341,0.999968,0.004530,0.000407,0.006549,-0.098966,-0.077309,1.851251
1790767662.045102,-0.043104,0.031759,-0.037229,-0.001301,0.018530,8.938775,-0.021734,0.448917,-0.893309,-0.097197,-0.077789,1.859030,-0.106238,-0.141507,0.441341,0.999972,0.004087,0.000720,0.006225,-0.101230,-0.080385,1.859654
1790767662.049008,-0.044653,0.032333,-0.037300,0.009454,0.008742,8.942706,-0.021734,0.448917,-0.893309,-0.100997,-0.082931,1.874285,-0.105494,-0.143806,0.409875,0.999972,0.004087,0.000720,0.006225,-0.101230,-0.080385,1.859654
1790767662.053008,-0.045173,0.033681,-0.039067,0.011286,0.014187,8.935450,-0.021422,0.448253,-0.893650,-0.100997,-0.082931,1.874285,-0.105494,-0.143806,0.409875,0.999972,0.004087,0.000720,0.006225,-0.101230,-0.080385,1.859654
1790767662.057081,-0.047177,0.034753,-0.042535,0.005446,0.018005,8.959436,-0.021422,0.448253,-0.893650,-0.100997,-0.082931,1.874285,-0.105494,-0.143806,0.409875,0.999972,0.004087,0.000720,0.006225,-0.101230,-0.080385,1.859654
1790767662.061315,-0.046149,0.035438,-0.043999,0.014302,0.012018,8.952391,-0.021422,0.448253,-0.893650,-0.100997,-0.082931,1.874285,-0.105494,-0.143806,0.409875,0.999972,0.004087,0.000720,0.006225,-0.101230,-0.080385,1.859654
1790767662.066040,-0.045742,0.036531,-0.046632,0.014593,0.013290,8.957207,-0.021657,0.447742,-0.893901,-0.100997,-0.082931,1.874285,-0.105494,-0.143806,0.409875,0.999976,0.003621,0.001062,0.005801,-0.103497,-0.083493,1.867713
1790767662.069267,-0.046488,0.034259,-0.049580,0.019348,0.006661,8.955657,-0.021657,0.447742,-0.893901,-0.100997,-0.082931,1.874285,-0.105494,-0.143806,0.409875,0.999976,0.003621,0.001062,0.005801,-0.103497,-0.083493,1.867713
1790767662.073707,-0.046895,0.034814,-0.051432,0.005952,0.009289,8.972485,-0.021130,0.447920,-0.893824,-0.100997,-0.082931,1.874285,-0.105494,-0.143806,0.409875,0.999976,0.003621,0.001062,0.005801,-0.103497,-0.083493,1.867713
1790767662.077758,-0.048652,0.038650,-0.052659,0.014724,0.007105,8.962663,-0.021130,0.447920,-0.893824,-0.100997,-0.082931,1.874285,-0.105494,-0.143806,0.409875,0.999976,0.003621,0.001062,0.005801,-0.103497,-0.083493,1.867713
1790767662.081375,-0.048191,0.038115,-0.054584,0.008121,0.016284,8.969832,-0.021130,0.447920,-0.893824,-0.104346,-0.087564,1.886912,-0.104519,-0.145398,0.382837,0.999976,0.003621,0.001062,0.005801,-0.103497,-0.083493,1.867713
1790767662.085007,-0.048391,0.038770,-0.057821,0.006646,0.011562,8.979045,-0.021418,0.446901,-0.894327,-0.104346,-0.087564,1.886912,-0.104519,-0.145398,0.382837,0.999980,0.003142,0.001430,0.005272,-0.105765,-0.086628,1.875436
1790767662.089900,-0.046604,0.036946,-0.060421,0.005422,0.018237,8.979840,-0.021418,0.446901,-0.894327,-0.104346,-0.087564,1.886912,-0.104519,-0.145398,0.382837,0.999980,0.003142,0.001430,0.005272,-0.105765,-0.086628,1.875436
1790767662.093360,-0.049106,0.037800,-0.061007,0.005049,0.014765,8.980225,-0.020836,0.446880,-0.894351,-0.104346,-0.087564,1.886912,-0.104519,-0.145398,0.382837,0.999980,0.003142,0.001430,0.005272,-0.105765,-0.086628,1.875436
1790767662.097043,-0.047894,0.039702,-0.063420,0.003208,0.020718,8.978471,-0.020836,0.446880,-0.894351,-0.104346,-0.087564,1.886912,-0.104519,-0.145398,0.382837,0.999980,0.003142,0.001430,0.005272,-0.105765,-0.086628,1.875436
1790767662.100879,-0.048284,0.040617,-0.068299,0.018320,0.007464,8.973695,-0.020836,0.446880,-0.894351,-0.104346,-0.087564,1.886912,-0.104519,-0.145398,0.382837,0.999980,0.003142,0.001430,0.005272,-0.105765,-0.086628,1.875436
1790767662.105695,-0.049253,0.039793,-0.068808,0.009806,0.022108,8.978858,-0.020622,0.446396,-0.894598,-0.104346,-0.087564,1.886912,-0.104519,-0.145398,0.382837,0.999984,0.002655,0.001825,0.004633,-0.108030,-0.089783,1.882827
1790767662.109169,-0.048056,0.041101,-0.069566,0.016120,0.006093,8.982688,-0.020622,0.446396,-0.894598,-0.104346,-0.087564,1.886912,-0.104519,-0.145398,0.382837,0.999984,0.002655,0.001825,0.004633,-0.108030,-0.089783,1.882827
1790767662.112980,-0.050724,0.041242,-0.073060,0.015694,-0.001452,8.982012,-0.020497,0.446240,-0.894679,-0.107658,-0.092239,1.898688,-0.103205,-0.146542,0.356562,0.999984,0.002655,0.001825,0.004633,-0.108030,-0.089783,1.882827
1790767662.116763,-0.049231,0.043462,-0.073935,0.022572,0.010995,8.990039,-0.020497,0.446240,-0.894679,-0.107658,-0.092239,1.898688,-0.103205,-0.146542,0.356562,0.999984,0.002655,0.001825,0.004633,-0.108030,-0.089783,1.882827
1790767662.120944,-0.049940,0.041745,-0.078343,0.016654,0.021736,8.997788,-0.020497,0.446240,-0.894679,-0.107658,-0.092239,1.898688,-0.103205,-0.146542,0.356562,0.999984,0.002655,0.001825,0.004633,-0.108030,-0.089783,1.882827
1790767662.125338,-0.049503,0.040994,-0.080561,0.010876,0.010629,9.008347,-0.020493,0.445685,-0.894955,-0.107658,-0.092239,1.898688,-0.103205,-0.146542,0.356562,0.999988,0.002166,0.002244,0.003881,-0.110290,-0.092951,1.889894
1790767662.129145,-0.048902,0.043375,-0.082346,0.007908,0.017762,9.001458,-0.020493,0.445685,-0.894955,-0.107658,-0.092239,1.898688,-0.103205,-0.146542,0.356562,0.999988,0.002166,0.002244,0.003881,-0.110290,-0.092951,1.889894
1790767662.132902,-0.047576,0.041454,-0.083949,0.012799,0.013224,9.007332,-0.020490,0.445170,-0.895212,-0.107658,-0.092239,1.898688,-0.103205,-0.146542,0.356562,0.999988,0.002166,0.002244,0.003881,-0.110290,-0.092951,1.889894
1790767662.136533,-0.048529,0.044478,-0.087992,0.013317,0.009350,9.016742,-0.020490,0.445170,-0.895212,-0.107658,-0.092239,1.898688,-0.103205,-0.146542,0.356562,0.999988,0.002166,0.002244,0.003881,-0.110290,-0.092951,1.889894
1790767662.141108,-0.049580,0.044959,-0.088592,0.013480,0.008930,9.010097,-0.020490,0.445170,-0.895212,-0.107658,-0.092239,1.898688,-0.103205,-0.146542,0.356562,0.999988,0.002166,0.002244,0.003881,-0.110290,-0.092951,1.889894
1790767662.145295,-0.049838,0.045458,-0.091795,0.011909,0.016440,9.011796,-0.020558,0.444828,-0.895380,-0.110922,-0.096942,1.909636,-0.101514,-0.147232,0.330978,0.999990,0.001675,0.002684,0.003018,-0.112539,-0.096128,1.896640
1790767662.149139,-0.048412,0.045236,-0.093181,0.002373,0.013513,9.019178,-0.020558,0.444828,-0.895380,-0.110922,-0.096942,1.909636,-0.101514,-0.147232,0.330978,0.999990,0.001675,0.002684,0.003018,-0.112539,-0.096128,1.896640
1790767662.153018,-0.048713,0.045099,-0.093970,0.007157,0.016174,9.020297,-0.020212,0.444797,-0.895404,-0.110922,-0.096942,1.909636,-0.101514,-0.147232,0.330978,0.999990,0.001675,0.002684,0.003018,-0.112539,-0.096128,1.896640
1790767662.157335,-0.047861,0.044760,-0.098373,0.006726,0.010529,9.023848,-0.020212,0.444797,-0.895404,-0.110922,-0.096942,1.909636,-0.101514,-0.147232,0.330978,0.999990,0.001675,0.002684,0.003018,-0.112539,-0.096128,1.896640
1790767662.161037,-0.048848,0.047794,-0.098016,0.011833,0.016714,9.025454,-0.020212,0.444797,-0.895404,-0.110922,-0.096942,1.909636,-0.101514,-0.147232,0.330978,0.999990,0.001675,0.002684,0.003018,-0.112539,-0.096128,1.896640
1790767662.165368,-0.047694,0.046844,-0.101687,0.013501,0.020996,9.030403,-0.020507,0.444031,-0.895777,-0.110922,-0.096942,1.909636,-0.101514,-0.147232,0.330978,0.999992,0.001180,0.003145,0.002046,-0.114774,-0.099312,1.903073
1790767662.169216,-0.050722,0.046334,-0.104087,0.013532,0.015425,9.035680,-0.020507,0.444031,-0.895777,-0.110922,-0.096942,1.909636,-0.101514,-0.147232,0.330978,0.999992,0.001180,0.003145,0.002046,-0.114774,-0.099312,1.903073
1790767662.174325,-0.049834,0.048264,-0.106838,0.003095,0.010576,9.051186,-0.020330,0.444042,-0.895775,-0.110922,-0.096942,1.909636,-0.101514,-0.147232,0.330978,0.999992,0.001180,0.003145,0.002046,-0.114774,-0.099312,1.903073
1790767662.177455,-0.050207,0.048973,-0.106085,0.010382,0.000551,9.049367,-0.020330,0.444042,-0.895775,-0.110922,-0.096942,1.909636,-0.101514,-0.147232,0.330978,0.999992,0.001180,0.003145,0.002046,-0.114774,-0.099312,1.903073
1790767662.181019,-0.049438,0.047324,-0.108042,0.005101,0.016222,9.056124,-0.020330,0.444042,-0.895775,-0.114519,-0.102250,1.920993,-0.099118,-0.147465,0.303380,0.999992,0.001180,0.003145,0.002046,-0.114774,-0.099312,1.903073
1790767662.185174,-0.051458,0.049046,-0.111303,0.010410,0.005778,9.061943,-0.020290,0.443239,-0.896174,-0.114519,-0.102250,1.920993,-0.099118,-0.147465,0.303380,0.999993,0.000675,0.003621,0.000976,-0.116990,-0.102502,1.909201
1790767662.189459,-0.051690,0.049919,-0.111746,0.020519,0.021856,9.065186,-0.020290,0.443239,-0.896174,-0.114519,-0.102250,1.920993,-0.099118,-0.147465,0.303380,0.999993,0.000675,0.003621,0.000976,-0.116990,-0.102502,1.909201
1790767662.193606,-0.052096,0.048902,-0.114296,-0.004931,0.026006,9.058567,-0.020831,0.443059,-0.896251,-0.114519,-0.102250,1.920993,-0.099118,-0.147465,0.303380,0.999993,0.000675,0.003621,0.000976,-0.116990,-0.102502,1.909201
1790767662.197105,-0.050311,0.047849,-0.115988,0.011165,-0.005184,9.069312,-0.020831,0.443059,-0.896251,-0.114519,-0.102250,1.920993,-0.099118,-0.147465,0.303380,0.999993,0.000675,0.003621,0.000976,-0.116990,-0.102502,1.909201
1790767662.201004,-0.052145,0.049355,-0.117009,0.013573,0.010741,9.080898,-0.020831,0.443059,-0.896251,-0.114519,-0.102250,1.920993,-0.099118,-0.147465,0.303380,0.999993,0.000675,0.003621,0.000976,-0.116990,-0.102502,1.909201
1790767662.206048,-0.052912,0.048298,-0.119308,0.005065,0.017141,9.092955,-0.020242,0.442352,-0.896613,-0.114519,-0.102250,1.920993,-0.099118,-0.147465,0.303380,0.999992,0.000150,0.004110,-0.000178,-0.119182,-0.105700,1.915036
1790767662.209379,-0.053896,0.047152,-0.121450,0.006301,0.015720,9.095989,-0.020242,0.442352,-0.896613,-0.114519,-0.102250,1.920993,-0.099118,-0.147465,0.303380,0.999992,0.000150,0.004110,-0.000178,-0.119182,-0.105700,1.915036
1790767662.212948,-0.057079,0.050956,-0.120838,0.013103,0.009822,9.088649,-0.020816,0.441763,-0.896890,-0.117636,-0.106966,1.930281,-0.096514,-0.147179,0.280266,0.999992,0.000150,0.004110,-0.000178,-0.119182,-0.105700,1.915036
1790767662.217011,-0.054463,0.049497,-0.122626,0.003350,0.012937,9.095576,-0.020816,0.441763,-0.896890,-0.117636,-0.106966,1.930281,-0.096514,-0.147179,0.280266,0.999992,0.000150,0.004110,-0.000178,-0.119182,-0.105700,1.915036
1790767662.221232,-0.055335,0.049076,-0.123780,0.008531,0.005665,9.099190,-0.020816,0.441763,-0.896890,-0.117636,-0.106966,1.930281,-0.096514,-0.147179,0.280266,0.999992,0.000150,0.004110,-0.000178,-0.119182,-0.105700,1.915036
1790767662.225452,-0.058879,0.048205,-0.124093,-0.002011,0.017840,9.116178,-0.020540,0.441366,-0.897092,-0.117636,-0.106966,1.930281,-0.096514,-0.147179,0.280266,0.999988,-0.000412,0.004600,-0.001390,-0.121340,-0.108909,1.920587
1790767662.232854,-0.058763,0.047347,-0.123004,-0.007062,0.012379,9.114976,-0.020540,0.441366,-0.897092,-0.117636,-0.106966,1.930281,-0.096514,-0.147179,0.280266,0.999988,-0.000412,0.004600,-0.001390,-0.121340,-0.108909,1.920587
1790767662.234648,-0.058524,0.046580,-0.123286,0.004155,0.021714,9.127581,-0.020817,0.441163,-0.897185,-0.117636,-0.106966,1.930281,-0.096514,-0.147179,0.280266,0.999988,-0.000412,0.004600,-0.001390,-0.121340,-0.108909,1.920587
1790767662.236896,-0.059852,0.047615,-0.123366,0.009815,0.004873,9.118952,-0.020817,0.441163,-0.897185,-0.117636,-0.106966,1.930281,-0.096514,-0.147179,0.280266,0.999988,-0.000412,0.004600,-0.001390,-0.121340,-0.108909,1.920587
1790767662.241599,-0.061574,0.047186,-0.125119,0.008151,0.008548,9.119209,-0.020817,0.441163,-0.897185,-0.117636,-0.106966,1.930281,-0.096514,-0.147179,0.280266,0.999988,-0.000412,0.004600,-0.001390,-0.121340,-0.108909,1.920587
1790767662.245120,-0.061140,0.046771,-0.123415,0.004879,0.014086,9.116694,-0.020410,0.440473,-0.897534,-0.120662,-0.111663,1.938850,-0.093449,-0.146386,0.258209,0.999983,-0.001016,0.005079,-0.002631,-0.123456,-0.112128,1.925863
1790767662.248606,-0.063476,0.046335,-0.124382,0.003917,0.017667,9.128757,-0.020410,0.440473,-0.897534,-0.120662,-0.111663,1.938850,-0.093449,-0.146386,0.258209,0.999983,-0.001016,0.005079,-0.002631,-0.123456,-0.112128,1.925863
1790767662.253506,-0.064338,0.046663,-0.124297,0.014377,0.019157,9.141984,-0.020537,0.440179,-0.897675,-0.120662,-0.111663,1.938850,-0.093449,-0.146386,0.258209,0.999983,-0.001016,0.005079,-0.002631,-0.123456,-0.112128,1.925863
1790767662.257875,-0.063941,0.046755,-0.123647,0.006971,0.022163,9.144711,-0.020537,0.440179,-0.897675,-0.120662,-0.111663,1.938850,-0.093449,-0.146386,0.258209,0.999983,-0.001016,0.005079,-0.002631,-0.123456,-0.112128,1.925863
1790767662.261007,-0.066082,0.045211,-0.123254,-0.002966,0.016000,9.133595,-0.020537,0.440179,-0.897675,-0.120662,-0.111663,1.938850,-0.093449,-0.146386,0.258209,0.999983,-0.001016,0.005079,-0.002631,-0.123456,-0.112128,1.925863
1790767662.264946,-0.065467,0.041735,-0.123833,0.008157,0.015477,9.159255,-0.020545,0.439516,-0.898000,-0.120662,-0.111663,1.938850,-0.093449,-0.146386,0.258209,0.999976,-0.001663,0.005529,-0.003867,-0.125518,-0.115353,1.930871
