t,gx,gy,gz,ax,ay,az,mx,my,mz,px,py,pz,vx,vy,vz,tqw,tqx,tqy,tqz,tpx,tpy,tpz
1790768007.020264,-0.000830,0.000027,0.000281,-0.005030,-0.005814,9.804971,0.449774,0.020177,0.892915,0.000000,0.000000,0.000000,0.000000,0.000000,0.000000,1.000000,0.000000,0.000000,-0.000000,-0.000000,0.000000,-0.013000
1790768007.027135,0.000475,-0.000148,-0.000256,-0.003866,-0.003890,9.805464,0.449774,0.020177,0.892915,0.000000,0.000000,0.000000,0.000000,0.000000,0.000000,1.000000,0.000000,0.000000,-0.000000,-0.000000,0.000000,-0.013000
1790768007.028990,-0.000353,0.000217,-0.000534,0.000050,-0.000463,9.804646,0.449774,0.020177,0.892915,0.000000,0.000000,0.000000,0.000000,0.000000,0.000000,1.000000,0.000000,0.000000,-0.000000,-0.000000,0.000000,-0.013000
1790768007.031229,-0.000098,-0.000207,-0.000881,0.000639,0.000935,9.799551,0.449468,0.020023,0.893072,0.000000,0.000000,0.000000,0.000000,0.000000,0.000000,1.000000,0.000000,0.000000,-0.000000,-0.000000,0.000000,-0.013000
1790768007.035298,-0.000951,-0.001089,0.000041,-0.005531,-0.008688,9.799037,0.449468,0.020023,0.893072,0.000000,0.000000,0.000000,0.000000,0.000000,0.000000,1.000000,0.000000,0.000000,-0.000000,-0.000000,0.000000,-0.013000
1790768007.039879,0.000627,0.000233,-0.000364,-0.002610,-0.003442,9.797510,0.449466,0.019982,0.893074,0.000000,0.000000,0.000000,0.000000,0.000000,0.000000,1.000000,0.000000,0.000000,-0.000000,-0.000000,0.000000,-0.013000
1790768007.043406,-0.000698,0.000307,0.000154,0.006720,0.005562,9.810556,0.449466,0.019982,0.893074,0.000000,0.000000,0.000000,0.000000,0.000000,0.000000,1.000000,0.000000,0.000000,-0.000000,-0.000000,0.000000,-0.013000
1790768007.047412,0.000427,0.000740,-0.000437,0.009650,0.001253,9.790317,0.449466,0.019982,0.893074,0.000000,0.000000,0.000000,0.000000,0.000000,0.000000,1.000000,0.000000,0.000000,-0.000000,-0.000000,0.000000,-0.013000
1790768007.051488,0.000092,-0.000641,-0.000334,0.000587,0.000314,9.800848,0.449264,0.020018,0.893175,0.000000,0.000000,0.000000,-0.000000,0.000000,0.000000,1.000000,0.000000,0.000000,-0.000000,-0.000000,0.000000,-0.013000
1790768007.055168,0.000966,0.001120,0.000917,0.006312,-0.006530,9.806332,0.449264,0.020018,0.893175,0.000000,0.000000,0.000000,-0.000000,0.000000,0.000000,1.000000,0.000000,0.000000,-0.000000,-0.000000,0.000000,-0.013000
1790768007.059551,0.001157,0.000381,-0.000997,0.006205,-0.009058,9.800925,0.449451,0.020141,0.893078,0.000000,0.000000,0.000000,-0.000000,0.000000,0.000000,1.000000,0.000000,0.000000,-0.000000,-0.000000,0.000000,-0.013000
1790768007.063293,-0.000276,0.001348,0.000170,-0.002193,0.012022,9.815346,0.449451,0.020141,0.893078,0.000000,0.000000,0.000000,-0.000000,0.000000,0.000000,1.000000,0.000000,0.000000,-0.000000,-0.000000,0.000000,-0.013000
1790768007.067151,-0.000972,-0.000835,0.000020,0.001838,0.003625,9.795224,0.449451,0.020141,0.893078,0.000000,0.000000,0.000000,-0.000000,0.000000,0.000000,1.000000,0.000000,0.000000,-0.000000,-0.000000,0.000000,-0.013000
1790768007.071310,-0.000608,0.001262,-0.001291,-0.000216,-0.014239,9.808836,0.449621,0.020049,0.892995,0.000000,0.000000,0.000000,-0.000000,0.000000,0.000000,1.000000,0.000000,0.000000,-0.000000,-0.000000,0.000000,-0.013000
1790768007.075869,-0.001450,0.000570,-0.000931,-0.002525,0.001427,9.810744,0.449621,0.020049,0.892995,0.000000,0.000000,0.000000,-0.000000,0.000000,0.000000,1.000000,0.000000,0.000000,-0.000000,-0.000000,0.000000,-0.013000
1790768007.079922,0.000819,-0.000068,0.002105,0.004161,-0.007106,11.176578,0.449455,0.020012,0.893079,0.000000,0.000000,0.000000,-0.000000,0.000000,0.000000,1.000000,-0.000001,-0.000002,0.000003,0.000001,-0.000000,-0.012978
1790768007.083062,-0.001253,-0.001725,0.001450,0.001743,0.005486,12.222331,0.449455,0.020012,0.893079,-0.000000,0.000000,0.000083,-0.000008,0.000019,0.015162,1.000000,-0.000001,-0.000002,0.000003,0.000001,-0.000000,-0.012978
1790768007.087235,-0.001357,-0.002228,0.002836,-0.005339,0.010869,13.003102,0.449455,0.020012,0.893079,-0.000000,0.000000,0.000083,-0.000008,0.000019,0.015162,1.000000,-0.000001,-0.000002,0.000003,0.000001,-0.000000,-0.012978
1790768007.091398,-0.002126,-0.001740,0.001670,0.005004,-0.001724,13.572456,0.449714,0.019953,0.892949,-0.000000,0.000000,0.000083,-0.000008,0.000019,0.015162,1.000000,-0.000001,-0.000002,0.000003,0.000001,-0.000000,-0.012978
1790768007.095103,-0.002860,-0.001415,0.003214,-0.002930,-0.004993,14.018658,0.449714,0.019953,0.892949,-0.000000,0.000000,0.000083,-0.000008,0.000019,0.015162,1.000000,-0.000001,-0.000002,0.000003,0.000001,-0.000000,-0.012978
1790768007.099235,-0.003973,-0.002537,0.004597,-0.001318,-0.003422,14.328035,0.449742,0.019812,0.892939,-0.000000,0.000000,0.000083,-0.000008,0.000019,0.015162,1.000000,-0.000026,-0.000018,0.000030,0.000008,-0.000012,-0.012082
1790768007.106794,-0.003830,-0.002823,0.003421,0.011681,0.006008,14.545230,0.449742,0.019812,0.892939,-0.000000,0.000000,0.000083,-0.000008,0.000019,0.015162,1.000000,-0.000026,-0.000018,0.000030,0.000008,-0.000012,-0.012082
1790768007.108733,-0.005166,-0.001522,0.005164,-0.002351,-0.003064,14.679384,0.449742,0.019812,0.892939,-0.000000,0.000000,0.000083,-0.000008,0.000019,0.015162,1.000000,-0.000026,-0.000018,0.000030,0.000008,-0.000012,-0.012082
1790768007.113094,-0.005503,-0.000805,0.005006,0.004147,-0.004702,14.758299,0.449645,0.019608,0.892992,-0.000000,0.000000,0.000083,-0.000008,0.000019,0.015162,1.000000,-0.000026,-0.000018,0.000030,0.000008,-0.000012,-0.012082
1790768007.116563,-0.006956,-0.001207,0.004655,0.002732,-0.002760,14.823617,0.449645,0.019608,0.892992,-0.000000,0.000000,0.000083,-0.000008,0.000019,0.015162,1.000000,-0.000026,-0.000018,0.000030,0.000008,-0.000012,-0.012082
1790768007.120138,-0.006470,-0.002471,0.005713,0.004486,-0.005315,14.878367,0.449529,0.020185,0.893038,-0.000001,0.000001,0.003650,-0.000027,0.000039,0.176766,1.000000,-0.000083,-0.000030,0.000084,0.000014,-0.000039,-0.009350
1790768007.126281,-0.009124,-0.000298,0.006384,0.009123,0.004260,14.870313,0.449529,0.020185,0.893038,-0.000001,0.000001,0.003650,-0.000027,0.000039,0.176766,1.000000,-0.000083,-0.000030,0.000084,0.000014,-0.000039,-0.009350
1790768007.128185,-0.007392,-0.001787,0.007725,0.006565,-0.004176,14.864976,0.449529,0.020185,0.893038,-0.000001,0.000001,0.003650,-0.000027,0.000039,0.176766,1.000000,-0.000083,-0.000030,0.000084,0.000014,-0.000039,-0.009350
1790768007.131879,-0.005877,-0.000691,0.006282,0.005663,-0.009396,14.862220,0.449519,0.019926,0.893048,-0.000001,0.000001,0.003650,-0.000027,0.000039,0.176766,1.000000,-0.000083,-0.000030,0.000084,0.000014,-0.000039,-0.009350
1790768007.134710,-0.008631,-0.000865,0.007623,-0.001403,-0.001201,14.823050,0.449519,0.019926,0.893048,-0.000001,0.000001,0.003650,-0.000027,0.000039,0.176766,1.000000,-0.000083,-0.000030,0.000084,0.000014,-0.000039,-0.009350
1790768007.139952,-0.009456,0.000305,0.008832,0.003740,-0.008932,14.774995,0.449309,0.019771,0.893158,-0.000001,0.000001,0.003650,-0.000027,0.000039,0.176766,1.000000,-0.000165,-0.000028,0.000166,0.000012,-0.000077,-0.004601
1790768007.143071,-0.008475,0.002500,0.009293,0.005110,0.004553,14.749700,0.449309,0.019771,0.893158,-0.000001,0.000001,0.003650,-0.000027,0.000039,0.176766,1.000000,-0.000165,-0.000028,0.000166,0.000012,-0.000077,-0.004601
1790768007.146941,-0.011223,0.002234,0.011416,-0.002489,-0.005925,14.743751,0.449309,0.019771,0.893158,-0.000001,0.000001,0.003650,-0.000027,0.000039,0.176766,1.000000,-0.000165,-0.000028,0.000166,0.000012,-0.000077,-0.004601
1790768007.151062,-0.012139,0.002159,0.011576,0.005552,-0.013933,14.685393,0.449719,0.019608,0.892955,-0.000002,0.000004,0.012203,-0.000059,0.000163,0.336567,1.000000,-0.000165,-0.000028,0.000166,0.000012,-0.000077,-0.004601
1790768007.155069,-0.011058,0.002695,0.011626,-0.001719,0.001862,14.613681,0.449719,0.019608,0.892955,-0.000002,0.000004,0.012203,-0.000059,0.000163,0.336567,1.000000,-0.000165,-0.000028,0.000166,0.000012,-0.000077,-0.004601
1790768007.159367,-0.011359,0.001215,0.012064,0.002999,-0.006613,14.589138,0.449862,0.019360,0.892888,-0.000002,0.000004,0.012203,-0.000059,0.000163,0.336567,1.000000,-0.000273,-0.000013,0.000272,0.000004,-0.000125,0.002126
1790768007.163518,-0.013450,0.002129,0.010838,-0.006067,-0.004783,14.559398,0.449862,0.019360,0.892888,-0.000002,0.000004,0.012203,-0.000059,0.000163,0.336567,1.000000,-0.000273,-0.000013,0.000272,0.000004,-0.000125,0.002126
1790768007.167038,-0.012305,0.001262,0.012354,0.010572,0.007890,14.496141,0.449862,0.019360,0.892888,-0.000002,0.000004,0.012203,-0.000059,0.000163,0.336567,1.000000,-0.000273,-0.000013,0.000272,0.000004,-0.000125,0.002126
1790768007.171285,-0.013631,0.002484,0.011384,0.002181,-0.009288,14.435209,0.449698,0.019053,0.892978,-0.000002,0.000004,0.012203,-0.000059,0.000163,0.336567,1.000000,-0.000273,-0.000013,0.000272,0.000004,-0.000125,0.002126
1790768007.175145,-0.016100,0.002869,0.011489,-0.004426,-0.001333,14.398574,0.449698,0.019053,0.892978,-0.000002,0.000004,0.012203,-0.000059,0.000163,0.336567,1.000000,-0.000273,-0.000013,0.000272,0.000004,-0.000125,0.002126
1790768007.179279,-0.014833,0.002176,0.012941,0.002691,-0.000253,14.362878,0.449769,0.019044,0.892942,-0.000002,0.000004,0.012203,-0.000059,0.000163,0.336567,1.000000,-0.000407,0.000007,0.000401,-0.000007,-0.000183,0.010751
1790768007.183015,-0.015785,0.001982,0.013006,0.004311,0.003334,14.305350,0.449769,0.019044,0.892942,-0.000004,0.000014,0.025695,-0.000066,0.000441,0.486030,1.000000,-0.000407,0.000007,0.000401,-0.000007,-0.000183,0.010751
1790768007.187079,-0.016329,0.001581,0.014733,0.008694,-0.002722,14.233579,0.449769,0.019044,0.892942,-0.000004,0.000014,0.025695,-0.000066,0.000441,0.486030,1.000000,-0.000407,0.000007,0.000401,-0.000007,-0.000183,0.010751
1790768007.191308,-0.016792,0.002302,0.013775,-0.003142,0.000123,14.193002,0.449768,0.019102,0.892941,-0.000004,0.000014,0.025695,-0.000066,0.000441,0.486030,1.000000,-0.000407,0.000007,0.000401,-0.000007,-0.000183,0.010751
1790768007.195852,-0.016579,0.003236,0.013408,-0.006188,-0.001427,14.151854,0.449768,0.019102,0.892941,-0.000004,0.000014,0.025695,-0.000066,0.000441,0.486030,1.000000,-0.000407,0.000007,0.000401,-0.000007,-0.000183,0.010751
1790768007.199423,-0.014720,0.002299,0.015968,0.004606,0.009302,14.066425,0.449487,0.018378,0.893098,-0.000004,0.000014,0.025695,-0.000066,0.000441,0.486030,1.000000,-0.000561,0.000029,0.000550,-0.000019,-0.000246,0.021173
1790768007.203654,-0.016503,0.002267,0.017990,-0.001091,-0.006483,14.025525,0.449487,0.018378,0.893098,-0.000004,0.000014,0.025695,-0.000066,0.000441,0.486030,1.000000,-0.000561,0.000029,0.000550,-0.000019,-0.000246,0.021173
1790768007.207170,-0.016213,0.002119,0.016756,-0.004216,-0.000809,13.963120,0.449487,0.018378,0.893098,-0.000004,0.000014,0.025695,-0.000066,0.000441,0.486030,1.000000,-0.000561,0.000029,0.000550,-0.000019,-0.000246,0.021173
1790768007.211537,-0.017604,0.002076,0.016739,-0.011701,-0.007645,13.935291,0.449487,0.018548,0.893094,-0.000004,0.000014,0.025695,-0.000066,0.000441,0.486030,1.000000,-0.000561,0.000029,0.000550,-0.000019,-0.000246,0.021173
1790768007.214966,-0.016976,0.001710,0.015442,0.000600,-0.001837,13.858816,0.449487,0.018548,0.893094,-0.000006,0.000036,0.043734,-0.000044,0.000923,0.622160,1.000000,-0.000561,0.000029,0.000550,-0.000019,-0.000246,0.021173
1790768007.220086,-0.017534,0.002736,0.016262,-0.010770,-0.001189,13.797928,0.449691,0.018084,0.893001,-0.000006,0.000036,0.043734,-0.000044,0.000923,0.622160,0.999999,-0.000729,0.000053,0.000718,-0.000031,-0.000310,0.033287
1790768007.225234,-0.016804,0.003595,0.018365,0.007457,-0.009138,13.753320,0.449691,0.018084,0.893001,-0.000006,0.000036,0.043734,-0.000044,0.000923,0.622160,0.999999,-0.000729,0.000053,0.000718,-0.000031,-0.000310,0.033287
1790768007.228176,-0.018328,0.002493,0.019475,-0.001442,0.005936,13.711117,0.449691,0.018084,0.893001,-0.000006,0.000036,0.043734,-0.000044,0.000923,0.622160,0.999999,-0.000729,0.000053,0.000718,-0.000031,-0.000310,0.033287
1790768007.231403,-0.017519,0.003891,0.017734,-0.010965,0.000928,13.670050,0.449610,0.018182,0.893040,-0.000006,0.000036,0.043734,-0.000044,0.000923,0.622160,0.999999,-0.000729,0.000053,0.000718,-0.000031,-0.000310,0.033287
1790768007.236037,-0.018542,0.005163,0.016693,0.002199,-0.006922,13.620933,0.449610,0.018182,0.893040,-0.000006,0.000036,0.043734,-0.000044,0.000923,0.622160,0.999999,-0.000729,0.000053,0.000718,-0.000031,-0.000310,0.033287
1790768007.240244,-0.018083,0.001227,0.020080,0.003764,0.011090,13.569464,0.449782,0.017785,0.892961,-0.000006,0.000036,0.043734,-0.000044,0.000923,0.622160,0.999999,-0.000908,0.000081,0.000903,-0.000045,-0.000370,0.046985
1790768007.243346,-0.016932,0.002057,0.018841,-0.008334,-0.011775,13.526790,0.449782,0.017785,0.892961,-0.000006,0.000036,0.043734,-0.000044,0.000923,0.622160,0.999999,-0.000908,0.000081,0.000903,-0.000045,-0.000370,0.046985
1790768007.247442,-0.016017,0.001951,0.020420,0.008579,0.011007,13.456311,0.449782,0.017785,0.892961,-0.000006,0.000036,0.043734,-0.000044,0.000923,0.622160,0.999999,-0.000908,0.000081,0.000903,-0.000045,-0.000370,0.046985
1790768007.251761,-0.018476,0.002738,0.019298,-0.003908,0.006442,13.419418,0.449285,0.017592,0.893215,-0.000006,0.000085,0.068925,0.000023,0.001734,0.759467,0.999999,-0.000908,0.000081,0.000903,-0.000045,-0.000370,0.046985
1790768007.254976,-0.016755,0.004612,0.019405,-0.001079,-0.010688,13.361047,0.449285,0.017592,0.893215,-0.000006,0.000085,0.068925,0.000023,0.001734,0.759467,0.999999,-0.000908,0.000081,0.000903,-0.000045,-0.000370,0.046985
1790768007.259303,-0.016024,0.004068,0.020194,0.005314,0.003058,13.310203,0.449306,0.017108,0.893214,-0.000006,0.000085,0.068925,0.000023,0.001734,0.759467,0.999999,-0.001086,0.000112,0.001104,-0.000059,-0.000421,0.062171
1790768007.262699,-0.017160,0.003005,0.020506,-0.012958,0.000502,13.249887,0.449306,0.017108,0.893214,-0.000006,0.000085,0.068925,0.000023,0.001734,0.759467,0.999999,-0.001086,0.000112,0.001104,-0.000059,-0.000421,0.062171
1790768007.267359,-0.017487,0.002664,0.019940,-0.001900,0.003430,13.194581,0.449306,0.017108,0.893214,-0.000006,0.000085,0.068925,0.000023,0.001734,0.759467,0.999999,-0.001086,0.000112,0.001104,-0.000059,-0.000421,0.062171
1790768007.270905,-0.016874,0.004425,0.023163,-0.007929,-0.011247,13.172288,0.449353,0.016892,0.893195,-0.000006,0.000085,0.068925,0.000023,0.001734,0.759467,0.999999,-0.001086,0.000112,0.001104,-0.000059,-0.000421,0.062171
1790768007.275304,-0.018044,0.002695,0.022404,0.000138,-0.000551,13.136982,0.449353,0.016892,0.893195,-0.000006,0.000085,0.068925,0.000023,0.001734,0.759467,0.999999,-0.001086,0.000112,0.001104,-0.000059,-0.000421,0.062171
1790768007.279279,-0.016861,0.002782,0.022118,0.003587,-0.002862,13.068033,0.449452,0.016585,0.893150,-0.000006,0.000085,0.068925,0.000023,0.001734,0.759467,0.999998,-0.001255,0.000144,0.001319,-0.000073,-0.000457,0.078741
1790768007.283126,-0.015829,0.002513,0.021183,0.001446,-0.000876,13.002744,0.449452,0.016585,0.893150,-0.000004,0.000157,0.095212,0.000123,0.002690,0.867882,0.999998,-0.001255,0.000144,0.001319,-0.000073,-0.000457,0.078741
1790768007.286907,-0.016620,0.003106,0.023612,0.011201,-0.003147,12.963383,0.449452,0.016585,0.893150,-0.000004,0.000157,0.095212,0.000123,0.002690,0.867882,0.999998,-0.001255,0.000144,0.001319,-0.000073,-0.000457,0.078741
1790768007.291139,-0.015931,0.003026,0.021829,0.005253,-0.011918,12.941258,0.449514,0.015829,0.893133,-0.000004,0.000157,0.095212,0.000123,0.002690,0.867882,0.999998,-0.001255,0.000144,0.001319,-0.000073,-0.000457,0.078741
1790768007.294872,-0.016254,0.004109,0.023120,0.009600,-0.002654,12.868006,0.449514,0.015829,0.893133,-0.000004,0.000157,0.095212,0.000123,0.002690,0.867882,0.999998,-0.001255,0.000144,0.001319,-0.000073,-0.000457,0.078741
1790768007.299078,-0.015800,0.002944,0.023854,0.001546,0.000319,12.836791,0.449106,0.016626,0.893324,-0.000004,0.000157,0.095212,0.000123,0.002690,0.867882,0.999998,-0.001416,0.000176,0.001547,-0.000085,-0.000474,0.096598
1790768007.303027,-0.013614,0.002854,0.024240,-0.006175,-0.011853,12.784524,0.449106,0.016626,0.893324,-0.000004,0.000157,0.095212,0.000123,0.002690,0.867882,0.999998,-0.001416,0.000176,0.001547,-0.000085,-0.000474,0.096598
1790768007.307083,-0.013421,0.001599,0.024441,0.000787,-0.005829,12.761794,0.449106,0.016626,0.893324,-0.000004,0.000157,0.095212,0.000123,0.002690,0.867882,0.999998,-0.001416,0.000176,0.001547,-0.000085,-0.000474,0.096598
1790768007.311514,-0.014718,0.003785,0.024589,0.009312,-0.005241,12.719660,0.449210,0.015934,0.893284,-0.000004,0.000157,0.095212,0.000123,0.002690,0.867882,0.999998,-0.001416,0.000176,0.001547,-0.000085,-0.000474,0.096598
1790768007.315268,-0.015914,0.002501,0.024216,-0.006397,0.008876,12.654827,0.449210,0.015934,0.893284,0.000002,0.000263,0.124747,0.000263,0.003833,0.964252,0.999998,-0.001416,0.000176,0.001547,-0.000085,-0.000474,0.096598
1790768007.319467,-0.013834,0.002008,0.023519,0.004253,-0.003871,12.613495,0.449256,0.015749,0.893264,0.000002,0.000263,0.124747,0.000263,0.003833,0.964252,0.999997,-0.001566,0.000207,0.001786,-0.000095,-0.000473,0.115651
1790768007.323751,-0.013744,0.002634,0.024834,0.000937,-0.000929,12.590422,0.449256,0.015749,0.893264,0.000002,0.000263,0.124747,0.000263,0.003833,0.964252,0.999997,-0.001566,0.000207,0.001786,-0.000095,-0.000473,0.115651
1790768007.327315,-0.014233,0.002951,0.025477,0.004383,0.005839,12.541151,0.449256,0.015749,0.893264,0.000002,0.000263,0.124747,0.000263,0.003833,0.964252,0.999997,-0.001566,0.000207,0.001786,-0.000095,-0.000473,0.115651
1790768007.331130,-0.014502,0.002120,0.025968,-0.005989,-0.008203,12.499801,0.449384,0.015475,0.893205,0.000002,0.000263,0.124747,0.000263,0.003833,0.964252,0.999997,-0.001566,0.000207,0.001786,-0.000095,-0.000473,0.115651
1790768007.335512,-0.013545,0.003514,0.023326,0.001632,-0.009248,12.459944,0.449384,0.015475,0.893205,0.000002,0.000263,0.124747,0.000263,0.003833,0.964252,0.999997,-0.001566,0.000207,0.001786,-0.000095,-0.000473,0.115651
1790768007.340398,-0.013196,0.001380,0.023503,0.008877,-0.008500,12.414504,0.449240,0.015529,0.893276,0.000002,0.000263,0.124747,0.000263,0.003833,0.964252,0.999996,-0.001709,0.000237,0.002033,-0.000102,-0.000452,0.135818
1790768007.343485,-0.013035,0.002893,0.024804,0.002512,-0.002662,12.367039,0.449240,0.015529,0.893276,0.000002,0.000263,0.124747,0.000263,0.003833,0.964252,0.999996,-0.001709,0.000237,0.002033,-0.000102,-0.000452,0.135818
1790768007.347592,-0.013898,0.002721,0.025499,-0.001804,0.000315,12.320882,0.449240,0.015529,0.893276,0.000014,0.000409,0.157176,0.000438,0.005134,1.050007,0.999996,-0.001709,0.000237,0.002033,-0.000102,-0.000452,0.135818
1790768007.351659,-0.014216,0.003336,0.025113,0.007325,0.002459,12.309149,0.449442,0.014982,0.893184,0.000014,0.000409,0.157176,0.000438,0.005134,1.050007,0.999996,-0.001709,0.000237,0.002033,-0.000102,-0.000452,0.135818
1790768007.355428,-0.012299,0.004132,0.025876,-0.000036,0.005206,12.267650,0.449442,0.014982,0.893184,0.000014,0.000409,0.157176,0.000438,0.005134,1.050007,0.999996,-0.001709,0.000237,0.002033,-0.000102,-0.000452,0.135818
1790768007.360384,-0.013387,0.003095,0.026774,0.005017,0.010122,12.214892,0.449257,0.014534,0.893285,0.000014,0.000409,0.157176,0.000438,0.005134,1.050007,0.999996,-0.001845,0.000265,0.002288,-0.000105,-0.000411,0.157015
1790768007.363310,-0.013898,0.001985,0.026869,0.007016,-0.008537,12.171962,0.449257,0.014534,0.893285,0.000014,0.000409,0.157176,0.000438,0.005134,1.050007,0.999996,-0.001845,0.000265,0.002288,-0.000105,-0.000411,0.157015
1790768007.367209,-0.013224,0.002373,0.026559,-0.003003,0.001671,12.118143,0.449257,0.014534,0.893285,0.000014,0.000409,0.157176,0.000438,0.005134,1.050007,0.999996,-0.001845,0.000265,0.002288,-0.000105,-0.000411,0.157015
1790768007.371276,-0.011757,0.003252,0.026896,0.006527,0.000853,12.086529,0.449274,0.014217,0.893281,0.000014,0.000409,0.157176,0.000438,0.005134,1.050007,0.999996,-0.001845,0.000265,0.002288,-0.000105,-0.000411,0.157015
1790768007.375486,-0.012609,0.002558,0.025418,-0.006346,-0.007166,12.038914,0.449274,0.014217,0.893281,0.000014,0.000409,0.157176,0.000438,0.005134,1.050007,0.999996,-0.001845,0.000265,0.002288,-0.000105,-0.000411,0.157015
1790768007.379467,-0.011358,0.001670,0.026423,-0.006605,-0.000598,12.011972,0.449052,0.014415,0.893390,0.000014,0.000409,0.157176,0.000438,0.005134,1.050007,0.999995,-0.001975,0.000289,0.002550,-0.000105,-0.000350,0.179161
1790768007.383570,-0.012444,0.001966,0.025802,0.000672,-0.001045,11.985262,0.449052,0.014415,0.893390,0.000034,0.000626,0.196695,0.000670,0.006758,1.133983,0.999995,-0.001975,0.000289,0.002550,-0.000105,-0.000350,0.179161
1790768007.386882,-0.012676,0.001769,0.026264,-0.006003,-0.003651,11.966672,0.449052,0.014415,0.893390,0.000034,0.000626,0.196695,0.000670,0.006758,1.133983,0.999995,-0.001975,0.000289,0.002550,-0.000105,-0.000350,0.179161
1790768007.394899,-0.012713,0.001610,0.026697,-0.014607,0.014676,11.860508,0.449371,0.013669,0.893241,0.000034,0.000626,0.196695,0.000670,0.006758,1.133983,0.999995,-0.001975,0.000289,0.002550,-0.000105,-0.000350,0.179161
1790768007.395548,-0.012713,0.001610,0.026697,-0.014607,0.014676,11.860508,0.449371,0.013669,0.893241,0.000034,0.000626,0.196695,0.000670,0.006758,1.133983,0.999995,-0.001975,0.000289,0.002550,-0.000105,-0.000350,0.179161
1790768007.399139,-0.013613,0.002764,0.026396,0.003883,0.004940,11.825436,0.448871,0.013914,0.893488,0.000034,0.000626,0.196695,0.000670,0.006758,1.133983,0.999994,-0.002100,0.000310,0.002816,-0.000100,-0.000267,0.202177
1790768007.403443,-0.012320,0.001854,0.026002,0.006091,-0.003810,11.784529,0.448871,0.013914,0.893488,0.000034,0.000626,0.196695,0.000670,0.006758,1.133983,0.999994,-0.002100,0.000310,0.002816,-0.000100,-0.000267,0.202177
1790768007.407004,-0.012618,0.001109,0.027224,-0.013755,0.007812,11.723166,0.448871,0.013914,0.893488,0.000034,0.000626,0.196695,0.000670,0.006758,1.133983,0.999994,-0.002100,0.000310,0.002816,-0.000100,-0.000267,0.202177
1790768007.411864,-0.014044,0.001875,0.027165,-0.002102,0.006127,11.701087,0.448797,0.013388,0.893533,0.000034,0.000626,0.196695,0.000670,0.006758,1.133983,0.999994,-0.002100,0.000310,0.002816,-0.000100,-0.000267,0.202177
1790768007.415007,-0.012294,0.002604,0.026278,-0.006724,-0.005010,11.665760,0.448797,0.013388,0.893533,0.000060,0.000870,0.234163,0.000897,0.008323,1.198127,0.999994,-0.002100,0.000310,0.002816,-0.000100,-0.000267,0.202177
1790768007.420326,-0.010973,0.002907,0.027351,-0.009720,-0.010045,11.660892,0.449131,0.013618,0.893362,0.000060,0.000870,0.234163,0.000897,0.008323,1.198127,0.999993,-0.002219,0.000332,0.003086,-0.000093,-0.000162,0.225987
1790768007.423531,-0.011472,0.003442,0.027817,-0.005520,-0.000129,11.606862,0.449131,0.013618,0.893362,0.000060,0.000870,0.234163,0.000897,0.008323,1.198127,0.999993,-0.002219,0.000332,0.003086,-0.000093,-0.000162,0.225987
1790768007.427024,-0.011465,0.003098,0.027795,-0.002292,-0.016534,11.570239,0.449131,0.013618,0.893362,0.000060,0.000870,0.234163,0.000897,0.008323,1.198127,0.999993,-0.002219,0.000332,0.003086,-0.000093,-0.000162,0.225987
1790768007.430955,-0.011657,0.001180,0.027086,0.001690,0.005507,11.527391,0.448938,0.012995,0.893468,0.000060,0.000870,0.234163,0.000897,0.008323,1.198127,0.999993,-0.002219,0.000332,0.003086,-0.000093,-0.000162,0.225987
1790768007.435499,-0.011957,0.003136,0.026623,0.007594,-0.012506,11.497068,0.448938,0.012995,0.893468,0.000060,0.000870,0.234163,0.000897,0.008323,1.198127,0.999993,-0.002219,0.000332,0.003086,-0.000093,-0.000162,0.225987
1790768007.439600,-0.010424,0.002585,0.027734,-0.009094,-0.000212,11.452666,0.449333,0.013021,0.893269,0.000060,0.000870,0.234163,0.000897,0.008323,1.198127,0.999992,-0.002333,0.000360,0.003360,-0.000085,-0.000033,0.250520
1790768007.443686,-0.011254,0.003293,0.027362,-0.001402,0.005256,11.424129,0.449333,0.013021,0.893269,0.000060,0.000870,0.234163,0.000897,0.008323,1.198127,0.999992,-0.002333,0.000360,0.003360,-0.000085,-0.000033,0.250520
1790768007.447421,-0.010288,0.004608,0.027935,-0.015200,-0.009861,11.405555,0.449333,0.013021,0.893269,0.000093,0.001166,0.273516,0.001144,0.009987,1.253073,0.999992,-0.002333,0.000360,0.003360,-0.000085,-0.000033,0.250520
1790768007.451612,-0.009358,0.000702,0.028493,-0.007726,-0.002159,11.385583,0.449077,0.012227,0.893409,0.000093,0.001166,0.273516,0.001144,0.009987,1.253073,0.999992,-0.002333,0.000360,0.003360,-0.000085,-0.000033,0.250520
1790768007.455256,-0.008318,0.003867,0.029042,-0.001749,-0.003278,11.360759,0.449077,0.012227,0.893409,0.000093,0.001166,0.273516,0.001144,0.009987,1.253073,0.999992,-0.002333,0.000360,0.003360,-0.000085,-0.000033,0.250520
1790768007.459606,-0.007169,0.004330,0.028876,-0.002723,-0.013513,11.322780,0.449282,0.012558,0.893302,0.000093,0.001166,0.273516,0.001144,0.009987,1.253073,0.999990,-0.002428,0.000390,0.003644,-0.000076,0.000125,0.275705
1790768007.463585,-0.006986,0.002228,0.030809,0.001905,0.011088,11.296935,0.449282,0.012558,0.893302,0.000093,0.001166,0.273516,0.001144,0.009987,1.253073,0.999990,-0.002428,0.000390,0.003644,-0.000076,0.000125,0.275705
1790768007.467259,-0.005953,0.002539,0.029194,-0.005818,-0.003812,11.288693,0.449282,0.012558,0.893302,0.000093,0.001166,0.273516,0.001144,0.009987,1.253073,0.999990,-0.002428,0.000390,0.003644,-0.000076,0.000125,0.275705
1790768007.472137,-0.006038,0.001799,0.029205,0.003048,-0.000076,11.241870,0.448770,0.011919,0.893568,0.000093,0.001166,0.273516,0.001144,0.009987,1.253073,0.999990,-0.002428,0.000390,0.003644,-0.000076,0.000125,0.275705
1790768007.476268,-0.006345,0.002484,0.029151,-0.007142,0.007215,11.201381,0.448770,0.011919,0.893568,0.000093,0.001166,0.273516,0.001144,0.009987,1.253073,0.999990,-0.002428,0.000390,0.003644,-0.000076,0.000125,0.275705
1790768007.479720,-0.005304,0.001407,0.029838,0.004515,-0.002232,11.175620,0.449175,0.012140,0.893362,0.000134,0.001517,0.314488,0.001420,0.011732,1.300529,0.999989,-0.002493,0.000420,0.003936,-0.000062,0.000319,0.301491
1790768007.483351,-0.005579,0.002349,0.030077,-0.005827,0.002853,11.155724,0.449175,0.012140,0.893362,0.000134,0.001517,0.314488,0.001420,0.011732,1.300529,0.999989,-0.002493,0.000420,0.003936,-0.000062,0.000319,0.301491
1790768007.487657,-0.004599,0.002460,0.029855,0.008236,-0.003263,11.114243,0.449175,0.012140,0.893362,0.000134,0.001517,0.314488,0.001420,0.011732,1.300529,0.999989,-0.002493,0.000420,0.003936,-0.000062,0.000319,0.301491
1790768007.491643,-0.003970,0.002459,0.030012,0.001645,-0.003258,11.086809,0.448673,0.011978,0.893616,0.000134,0.001517,0.314488,0.001420,0.011732,1.300529,0.999989,-0.002493,0.000420,0.003936,-0.000062,0.000319,0.301491
1790768007.494789,-0.002977,0.002726,0.029852,0.007799,0.008109,11.074897,0.448673,0.011978,0.893616,0.000134,0.001517,0.314488,0.001420,0.011732,1.300529,0.999989,-0.002493,0.000420,0.003936,-0.000062,0.000319,0.301491
1790768007.499150,-0.000733,0.001861,0.031354,0.015653,-0.003730,11.055838,0.448818,0.012063,0.893542,0.000134,0.001517,0.314488,0.001420,0.011732,1.300529,0.999988,-0.002527,0.000447,0.004237,-0.000044,0.000551,0.327816
1790768007.503243,-0.000336,0.003085,0.030718,-0.004733,0.007279,11.000845,0.448818,0.012063,0.893542,0.000134,0.001517,0.314488,0.001420,0.011732,1.300529,0.999988,-0.002527,0.000447,0.004237,-0.000044,0.000551,0.327816
1790768007.506859,-0.002137,0.003430,0.029743,0.004057,-0.006643,10.971566,0.448818,0.012063,0.893542,0.000134,0.001517,0.314488,0.001420,0.011732,1.300529,0.999988,-0.002527,0.000447,0.004237,-0.000044,0.000551,0.327816
1790768007.511310,0.000884,0.003629,0.031700,-0.005402,0.008129,10.939932,0.448471,0.011584,0.893722,0.000134,0.001517,0.314488,0.001420,0.011732,1.300529,0.999988,-0.002527,0.000447,0.004237,-0.000044,0.000551,0.327816
1790768007.514925,0.000405,0.001771,0.030707,-0.007821,0.007254,10.907357,0.448471,0.011584,0.893722,0.000192,0.001979,0.362224,0.001761,0.013717,1.344967,0.999988,-0.002527,0.000447,0.004237,-0.000044,0.000551,0.327816
1790768007.518963,-0.000305,0.003165,0.030993,-0.006331,-0.001387,10.895147,0.448840,0.011502,0.893538,0.000192,0.001979,0.362224,0.001761,0.013717,1.344967,0.999986,-0.002534,0.000472,0.004546,-0.000021,0.000817,0.354624
1790768007.523498,0.000484,0.002805,0.032553,-0.002780,-0.014474,10.877087,0.448840,0.011502,0.893538,0.000192,0.001979,0.362224,0.001761,0.013717,1.344967,0.999986,-0.002534,0.000472,0.004546,-0.000021,0.000817,0.354624
1790768007.527180,0.002307,0.001200,0.031578,-0.005780,-0.007853,10.842138,0.448840,0.011502,0.893538,0.000192,0.001979,0.362224,0.001761,0.013717,1.344967,0.999986,-0.002534,0.000472,0.004546,-0.000021,0.000817,0.354624
1790768007.530772,0.000658,0.002948,0.031144,0.003895,0.008642,10.832187,0.448914,0.011491,0.893501,0.000192,0.001979,0.362224,0.001761,0.013717,1.344967,0.999986,-0.002534,0.000472,0.004546,-0.000021,0.000817,0.354624
1790768007.535216,0.001341,0.001126,0.031247,-0.015447,-0.003367,10.772925,0.448914,0.011491,0.893501,0.000192,0.001979,0.362224,0.001761,0.013717,1.344967,0.999986,-0.002534,0.000472,0.004546,-0.000021,0.000817,0.354624
1790768007.539339,0.003022,0.001811,0.033144,-0.005863,0.001710,10.757816,0.448769,0.010939,0.893581,0.000192,0.001979,0.362224,0.001761,0.013717,1.344967,0.999985,-0.002518,0.000492,0.004862,0.000008,0.001116,0.381857
1790768007.543166,0.004142,0.000995,0.031562,-0.000353,-0.009528,10.722183,0.448769,0.010939,0.893581,0.000192,0.001979,0.362224,0.001761,0.013717,1.344967,0.999985,-0.002518,0.000492,0.004862,0.000008,0.001116,0.381857
1790768007.547339,0.002999,0.000494,0.031755,0.007745,0.004632,10.679348,0.448769,0.010939,0.893581,0.000254,0.002449,0.405854,0.002083,0.015439,1.376758,0.999985,-0.002518,0.000492,0.004862,0.000008,0.001116,0.381857
1790768007.551508,0.003200,0.001706,0.032099,0.001566,0.001832,10.664979,0.448889,0.011433,0.893515,0.000254,0.002449,0.405854,0.002083,0.015439,1.376758,0.999985,-0.002518,0.000492,0.004862,0.000008,0.001116,0.381857
1790768007.555061,0.004854,0.000111,0.031260,0.002431,-0.014006,10.643291,0.448889,0.011433,0.893515,0.000254,0.002449,0.405854,0.002083,0.015439,1.376758,0.999985,-0.002518,0.000492,0.004862,0.000008,0.001116,0.381857
1790768007.559228,0.005337,0.000856,0.032831,0.008356,0.002742,10.615236,0.448946,0.011185,0.893489,0.000254,0.002449,0.405854,0.002083,0.015439,1.376758,0.999983,-0.002486,0.000507,0.005182,0.000043,0.001445,0.409460
1790768007.562823,0.003502,0.000815,0.032519,-0.007313,0.001661,10.610902,0.448946,0.011185,0.893489,0.000254,0.002449,0.405854,0.002083,0.015439,1.376758,0.999983,-0.002486,0.000507,0.005182,0.000043,0.001445,0.409460
1790768007.566808,0.002894,0.002354,0.031063,0.006175,-0.009368,10.561161,0.448946,0.011185,0.893489,0.000254,0.002449,0.405854,0.002083,0.015439,1.376758,0.999983,-0.002486,0.000507,0.005182,0.000043,0.001445,0.409460
1790768007.571046,0.005021,0.001342,0.032473,0.005533,-0.003696,10.540606,0.448771,0.011217,0.893576,0.000254,0.002449,0.405854,0.002083,0.015439,1.376758,0.999983,-0.002486,0.000507,0.005182,0.000043,0.001445,0.409460
1790768007.575909,0.004408,0.003018,0.031601,0.003848,-0.005437,10.510544,0.448771,0.011217,0.893576,0.000254,0.002449,0.405854,0.002083,0.015439,1.376758,0.999983,-0.002486,0.000507,0.005182,0.000043,0.001445,0.409460
1790768007.579078,0.005476,0.001047,0.031071,0.005254,-0.002072,10.483941,0.448771,0.011217,0.893576,0.000326,0.002973,0.450377,0.002416,0.017088,1.401698,0.999983,-0.002486,0.000507,0.005182,0.000043,0.001445,0.409460
1790768007.583318,0.003920,0.001548,0.032386,-0.003564,-0.006457,10.473253,0.448782,0.010824,0.893575,0.000326,0.002973,0.450377,0.002416,0.017088,1.401698,0.999982,-0.002443,0.000519,0.005506,0.000084,0.001799,0.437380
1790768007.587399,0.005307,0.000649,0.032878,-0.006601,-0.003645,10.439438,0.448782,0.010824,0.893575,0.000326,0.002973,0.450377,0.002416,0.017088,1.401698,0.999982,-0.002443,0.000519,0.005506,0.000084,0.001799,0.437380
1790768007.591498,0.006506,0.001057,0.031568,-0.007893,-0.004359,10.416642,0.449075,0.010697,0.893430,0.000326,0.002973,0.450377,0.002416,0.017088,1.401698,0.999982,-0.002443,0.000519,0.005506,0.000084,0.001799,0.437380
1790768007.595201,0.006037,0.001472,0.033052,-0.003065,-0.010028,10.404051,0.449075,0.010697,0.893430,0.000326,0.002973,0.450377,0.002416,0.017088,1.401698,0.999982,-0.002443,0.000519,0.005506,0.000084,0.001799,0.437380
1790768007.599167,0.006743,0.000248,0.034185,-0.004151,-0.004694,10.376948,0.448495,0.010453,0.893724,0.000326,0.002973,0.450377,0.002416,0.017088,1.401698,0.999980,-0.002390,0.000527,0.005833,0.000131,0.002178,0.465566
1790768007.603682,0.006201,-0.000502,0.034589,0.004098,-0.008025,10.357949,0.448495,0.010453,0.893724,0.000326,0.002973,0.450377,0.002416,0.017088,1.401698,0.999980,-0.002390,0.000527,0.005833,0.000131,0.002178,0.465566
1790768007.607187,0.005539,0.000572,0.033032,0.000492,-0.006669,10.362610,0.448495,0.010453,0.893724,0.000326,0.002973,0.450377,0.002416,0.017088,1.401698,0.999980,-0.002390,0.000527,0.005833,0.000131,0.002178,0.465566
1790768007.611198,0.005975,-0.000017,0.032986,-0.003548,-0.006707,10.357709,0.448851,0.010361,0.893546,0.000409,0.003549,0.495588,0.002752,0.018651,1.420924,0.999980,-0.002390,0.000527,0.005833,0.000131,0.002178,0.465566
1790768007.614882,0.004966,0.001087,0.031597,0.001846,0.000847,10.314451,0.448851,0.010361,0.893546,0.000409,0.003549,0.495588,0.002752,0.018651,1.420924,0.999980,-0.002390,0.000527,0.005833,0.000131,0.002178,0.465566
1790768007.619127,0.006859,-0.000178,0.033642,-0.003197,-0.001752,10.297001,0.448939,0.010462,0.893501,0.000409,0.003549,0.495588,0.002752,0.018651,1.420924,0.999978,-0.002329,0.000533,0.006163,0.000184,0.002580,0.493982
1790768007.623013,0.006903,0.000045,0.032252,-0.001667,-0.006739,10.274696,0.448939,0.010462,0.893501,0.000409,0.003549,0.495588,0.002752,0.018651,1.420924,0.999978,-0.002329,0.000533,0.006163,0.000184,0.002580,0.493982
1790768007.627058,0.008567,0.001409,0.031929,-0.006810,-0.005651,10.253113,0.448939,0.010462,0.893501,0.000409,0.003549,0.495588,0.002752,0.018651,1.420924,0.999978,-0.002329,0.000533,0.006163,0.000184,0.002580,0.493982
1790768007.630800,0.005282,0.000459,0.033501,-0.005448,0.008275,10.238979,0.448846,0.010056,0.893552,0.000409,0.003549,0.495588,0.002752,0.018651,1.420924,0.999978,-0.002329,0.000533,0.006163,0.000184,0.002580,0.493982
1790768007.635313,0.006459,0.000074,0.033208,-0.004466,-0.004589,10.209963,0.448846,0.010056,0.893552,0.000409,0.003549,0.495588,0.002752,0.018651,1.420924,0.999978,-0.002329,0.000533,0.006163,0.000184,0.002580,0.493982
1790768007.639147,0.006168,-0.000389,0.032773,0.004288,0.007445,10.207145,0.448679,0.010183,0.893635,0.000409,0.003549,0.495588,0.002752,0.018651,1.420924,0.999976,-0.002263,0.000535,0.006493,0.000242,0.003003,0.522589
1790768007.643270,0.008501,0.000001,0.032323,-0.003763,-0.006557,10.196514,0.448679,0.010183,0.893635,0.000409,0.003549,0.495588,0.002752,0.018651,1.420924,0.999976,-0.002263,0.000535,0.006493,0.000242,0.003003,0.522589
1790768007.646725,0.006474,-0.000779,0.032732,-0.002006,-0.001282,10.161304,0.448679,0.010183,0.893635,0.000515,0.004253,0.547074,0.003129,0.020299,1.436667,0.999976,-0.002263,0.000535,0.006493,0.000242,0.003003,0.522589
1790768007.650979,0.007231,-0.000500,0.034431,0.016868,-0.004073,10.138503,0.449090,0.010082,0.893430,0.000515,0.004253,0.547074,0.003129,0.020299,1.436667,0.999976,-0.002263,0.000535,0.006493,0.000242,0.003003,0.522589
1790768007.657430,0.005876,-0.000023,0.033442,0.004500,-0.005554,10.101964,0.449090,0.010082,0.893430,0.000515,0.004253,0.547074,0.003129,0.020299,1.436667,0.999976,-0.002263,0.000535,0.006493,0.000242,0.003003,0.522589
1790768007.659145,0.007942,0.000814,0.032390,0.005749,-0.009124,10.087491,0.448965,0.009770,0.893496,0.000515,0.004253,0.547074,0.003129,0.020299,1.436667,0.999974,-0.002191,0.000535,0.006825,0.000306,0.003447,0.551347
1790768007.662847,0.006872,0.000250,0.031362,0.005031,-0.001119,10.067530,0.448965,0.009770,0.893496,0.000515,0.004253,0.547074,0.003129,0.020299,1.436667,0.999974,-0.002191,0.000535,0.006825,0.000306,0.003447,0.551347
1790768007.667016,0.006535,-0.000766,0.033231,-0.004745,0.009569,10.055855,0.448965,0.009770,0.893496,0.000515,0.004253,0.547074,0.003129,0.020299,1.436667,0.999974,-0.002191,0.000535,0.006825,0.000306,0.003447,0.551347
1790768007.671150,0.009383,-0.001178,0.032424,-0.001917,0.004906,10.036494,0.448848,0.010208,0.893550,0.000515,0.004253,0.547074,0.003129,0.020299,1.436667,0.999974,-0.002191,0.000535,0.006825,0.000306,0.003447,0.551347
1790768007.675144,0.006176,0.001409,0.032170,0.007636,0.002043,10.034569,0.448848,0.010208,0.893550,0.000515,0.004253,0.547074,0.003129,0.020299,1.436667,0.999974,-0.002191,0.000535,0.006825,0.000306,0.003447,0.551347
1790768007.679528,0.006267,-0.000796,0.033241,-0.008085,0.005881,10.002029,0.449076,0.009812,0.893440,0.000621,0.004928,0.593211,0.003458,0.021653,1.445059,0.999972,-0.002113,0.000533,0.007157,0.000374,0.003911,0.580213
1790768007.682647,0.008914,-0.000555,0.032768,0.003303,0.004672,9.970073,0.449076,0.009812,0.893440,0.000621,0.004928,0.593211,0.003458,0.021653,1.445059,0.999972,-0.002113,0.000533,0.007157,0.000374,0.003911,0.580213
1790768007.686926,0.007468,-0.000574,0.033584,-0.001279,-0.001157,9.946767,0.449076,0.009812,0.893440,0.000621,0.004928,0.593211,0.003458,0.021653,1.445059,0.999972,-0.002113,0.000533,0.007157,0.000374,0.003911,0.580213
1790768007.691291,0.008734,-0.001518,0.034592,0.008543,0.010125,9.926639,0.448906,0.010002,0.893523,0.000621,0.004928,0.593211,0.003458,0.021653,1.445059,0.999972,-0.002113,0.000533,0.007157,0.000374,0.003911,0.580213
1790768007.695209,0.008635,-0.000256,0.033086,0.004744,-0.006575,9.892154,0.448906,0.010002,0.893523,0.000621,0.004928,0.593211,0.003458,0.021653,1.445059,0.999972,-0.002113,0.000533,0.007157,0.000374,0.003911,0.580213
1790768007.699146,0.009128,-0.001656,0.033504,0.007962,0.003393,9.895025,0.448773,0.009842,0.893592,0.000621,0.004928,0.593211,0.003458,0.021653,1.445059,0.999970,-0.002029,0.000528,0.007489,0.000448,0.004394,0.609148
1790768007.702901,0.007696,-0.000377,0.032679,0.002685,0.004397,9.889335,0.448773,0.009842,0.893592,0.000621,0.004928,0.593211,0.003458,0.021653,1.445059,0.999970,-0.002029,0.000528,0.007489,0.000448,0.004394,0.609148
1790768007.707949,0.010143,-0.000821,0.035288,-0.001529,0.020201,9.879171,0.448773,0.009842,0.893592,0.000621,0.004928,0.593211,0.003458,0.021653,1.445059,0.999970,-0.002029,0.000528,0.007489,0.000448,0.004394,0.609148
1790768007.710829,0.009064,-0.000904,0.033057,-0.004510,-0.002505,9.844881,0.448964,0.009981,0.893494,0.000737,0.005643,0.639523,0.003777,0.022899,1.448351,0.999970,-0.002029,0.000528,0.007489,0.000448,0.004394,0.609148
1790768007.715483,0.009160,-0.002277,0.032620,-0.006577,-0.007226,9.814714,0.448964,0.009981,0.893494,0.000737,0.005643,0.639523,0.003777,0.022899,1.448351,0.999970,-0.002029,0.000528,0.007489,0.000448,0.004394,0.609148
1790768007.723032,0.011055,-0.001087,0.032218,0.002207,-0.017316,9.801367,0.449019,0.009726,0.893469,0.000737,0.005643,0.639523,0.003777,0.022899,1.448351,0.999967,-0.001940,0.000521,0.007820,0.000527,0.004894,0.638112
1790768007.725861,0.010632,-0.001154,0.034754,-0.003034,-0.006230,9.772082,0.449019,0.009726,0.893469,0.000737,0.005643,0.639523,0.003777,0.022899,1.448351,0.999967,-0.001940,0.000521,0.007820,0.000527,0.004894,0.638112
1790768007.726869,0.008318,-0.002000,0.033359,0.000693,0.005838,9.765239,0.449019,0.009726,0.893469,0.000737,0.005643,0.639523,0.003777,0.022899,1.448351,0.999967,-0.001940,0.000521,0.007820,0.000527,0.004894,0.638112
1790768007.731159,0.010520,-0.000163,0.032925,0.001775,-0.001611,9.748417,0.448827,0.009669,0.893566,0.000737,0.005643,0.639523,0.003777,0.022899,1.448351,0.999967,-0.001940,0.000521,0.007820,0.000527,0.004894,0.638112
1790768007.735394,0.008269,-0.001028,0.032454,0.003984,0.000237,9.739107,0.448827,0.009669,0.893566,0.000737,0.005643,0.639523,0.003777,0.022899,1.448351,0.999967,-0.001940,0.000521,0.007820,0.000527,0.004894,0.638112
1790768007.739434,0.009289,0.000205,0.034369,-0.000652,-0.005192,9.726405,0.449153,0.009859,0.893401,0.000737,0.005643,0.639523,0.003777,0.022899,1.448351,0.999965,-0.001847,0.000513,0.008150,0.000610,0.005411,0.667069
1790768007.742980,0.009795,-0.000459,0.032559,-0.002889,0.000593,9.731599,0.449153,0.009859,0.893401,0.000863,0.006397,0.685856,0.004082,0.024031,1.446988,0.999965,-0.001847,0.000513,0.008150,0.000610,0.005411,0.667069
1790768007.746809,0.009627,-0.002396,0.034827,-0.002046,-0.007144,9.686752,0.449153,0.009859,0.893401,0.000863,0.006397,0.685856,0.004082,0.024031,1.446988,0.999965,-0.001847,0.000513,0.008150,0.000610,0.005411,0.667069
1790768007.751184,0.009855,-0.000736,0.033481,0.008269,-0.008077,9.665286,0.449005,0.009663,0.893477,0.000863,0.006397,0.685856,0.004082,0.024031,1.446988,0.999965,-0.001847,0.000513,0.008150,0.000610,0.005411,0.667069
1790768007.755497,0.009810,-0.001320,0.034978,-0.004955,0.009492,9.641566,0.449005,0.009663,0.893477,0.000863,0.006397,0.685856,0.004082,0.024031,1.446988,0.999965,-0.001847,0.000513,0.008150,0.000610,0.005411,0.667069
1790768007.759392,0.009833,-0.000832,0.032502,0.003092,-0.006292,9.626545,0.449173,0.009503,0.893394,0.000863,0.006397,0.685856,0.004082,0.024031,1.446988,0.999962,-0.001746,0.000506,0.008478,0.000697,0.005946,0.695988
1790768007.762898,0.010503,-0.000995,0.032582,-0.002702,-0.006789,9.605231,0.449173,0.009503,0.893394,0.000863,0.006397,0.685856,0.004082,0.024031,1.446988,0.999962,-0.001746,0.000506,0.008478,0.000697,0.005946,0.695988
1790768007.766783,0.010912,-0.001482,0.033069,0.012798,0.007222,9.596757,0.449173,0.009503,0.893394,0.000863,0.006397,0.685856,0.004082,0.024031,1.446988,0.999962,-0.001746,0.000506,0.008478,0.000697,0.005946,0.695988
1790768007.770998,0.009284,-0.001427,0.033013,-0.002772,-0.003752,9.596624,0.448762,0.009391,0.893602,0.000863,0.006397,0.685856,0.004082,0.024031,1.446988,0.999962,-0.001746,0.000506,0.008478,0.000697,0.005946,0.695988
1790768007.775097,0.010632,-0.000300,0.033347,0.008607,-0.008671,9.590999,0.448762,0.009391,0.893602,0.000863,0.006397,0.685856,0.004082,0.024031,1.446988,0.999962,-0.001746,0.000506,0.008478,0.000697,0.005946,0.695988
1790768007.779078,0.011332,-0.000893,0.032476,-0.011243,-0.001585,9.586247,0.448836,0.009363,0.893565,0.001016,0.007285,0.737834,0.004410,0.025165,1.440688,0.999960,-0.001638,0.000499,0.008804,0.000787,0.006496,0.724835
1790768007.782928,0.010327,-0.000879,0.031726,0.001183,-0.008883,9.570659,0.448836,0.009363,0.893565,0.001016,0.007285,0.737834,0.004410,0.025165,1.440688,0.999960,-0.001638,0.000499,0.008804,0.000787,0.006496,0.724835
1790768007.786963,0.011321,-0.001299,0.031344,0.000681,0.005490,9.567603,0.448836,0.009363,0.893565,0.001016,0.007285,0.737834,0.004410,0.025165,1.440688,0.999960,-0.001638,0.000499,0.008804,0.000787,0.006496,0.724835
1790768007.791620,0.011074,-0.000708,0.032949,-0.005599,0.009152,9.577931,0.449036,0.008956,0.893469,0.001016,0.007285,0.737834,0.004410,0.025165,1.440688,0.999960,-0.001638,0.000499,0.008804,0.000787,0.006496,0.724835
1790768007.794760,0.011042,-0.001587,0.033625,-0.008393,-0.012052,9.539080,0.449036,0.008956,0.893469,0.001016,0.007285,0.737834,0.004410,0.025165,1.440688,0.999960,-0.001638,0.000499,0.008804,0.000787,0.006496,0.724835
1790768007.799029,0.011139,-0.001973,0.031568,-0.007204,-0.001209,9.537615,0.448709,0.009347,0.893629,0.001016,0.007285,0.737834,0.004410,0.025165,1.440688,0.999957,-0.001525,0.000492,0.009127,0.000880,0.007060,0.753593
1790768007.802975,0.010694,-0.000387,0.031798,0.008050,-0.007114,9.514122,0.448709,0.009347,0.893629,0.001016,0.007285,0.737834,0.004410,0.025165,1.440688,0.999957,-0.001525,0.000492,0.009127,0.000880,0.007060,0.753593
1790768007.806938,0.010355,-0.000295,0.032048,-0.004295,-0.008654,9.504150,0.448709,0.009347,0.893629,0.001016,0.007285,0.737834,0.004410,0.025165,1.440688,0.999957,-0.001525,0.000492,0.009127,0.000880,0.007060,0.753593
1790768007.810757,0.011916,-0.001379,0.032404,0.003892,0.001010,9.495370,0.448845,0.009029,0.893564,0.001162,0.008107,0.783794,0.004691,0.026043,1.432296,0.999957,-0.001525,0.000492,0.009127,0.000880,0.007060,0.753593
1790768007.815293,0.010979,-0.001365,0.033763,-0.001316,-0.002440,9.482362,0.448845,0.009029,0.893564,0.001162,0.008107,0.783794,0.004691,0.026043,1.432296,0.999957,-0.001525,0.000492,0.009127,0.000880,0.007060,0.753593
1790768007.819685,0.011521,0.000388,0.033525,0.003199,-0.000164,9.474205,0.448848,0.009174,0.893561,0.001162,0.008107,0.783794,0.004691,0.026043,1.432296,0.999954,-0.001410,0.000485,0.009447,0.000977,0.007636,0.782238
1790768007.823087,0.012872,-0.000124,0.032242,0.010602,-0.001499,9.475549,0.448848,0.009174,0.893561,0.001162,0.008107,0.783794,0.004691,0.026043,1.432296,0.999954,-0.001410,0.000485,0.009447,0.000977,0.007636,0.782238
1790768007.826972,0.011746,-0.002898,0.031144,-0.009899,0.008268,9.435868,0.448848,0.009174,0.893561,0.001162,0.008107,0.783794,0.004691,0.026043,1.432296,0.999954,-0.001410,0.000485,0.009447,0.000977,0.007636,0.782238
1790768007.830889,0.012180,-0.002282,0.032446,0.002704,-0.008741,9.436466,0.449000,0.009125,0.893485,0.001162,0.008107,0.783794,0.004691,0.026043,1.432296,0.999954,-0.001410,0.000485,0.009447,0.000977,0.007636,0.782238
1790768007.834798,0.011017,-0.001413,0.031156,0.003020,-0.002379,9.398917,0.449000,0.009125,0.893485,0.001162,0.008107,0.783794,0.004691,0.026043,1.432296,0.999954,-0.001410,0.000485,0.009447,0.000977,0.007636,0.782238
1790768007.839457,0.011633,-0.000790,0.030936,0.000729,-0.008227,9.402344,0.449366,0.008992,0.893302,0.001162,0.008107,0.783794,0.004691,0.026043,1.432296,0.999951,-0.001296,0.000476,0.009762,0.001078,0.008221,0.810746
1790768007.843204,0.011750,-0.000082,0.031304,0.003236,-0.011151,9.393213,0.449366,0.008992,0.893302,0.001317,0.008954,0.829429,0.004962,0.026794,1.420700,0.999951,-0.001296,0.000476,0.009762,0.001078,0.008221,0.810746
1790768007.847196,0.010058,-0.002713,0.029872,0.001066,0.000685,9.388886,0.449366,0.008992,0.893302,0.001317,0.008954,0.829429,0.004962,0.026794,1.420700,0.999951,-0.001296,0.000476,0.009762,0.001078,0.008221,0.810746
1790768007.850758,0.008701,-0.000578,0.031057,-0.009249,-0.009593,9.376499,0.449297,0.009182,0.893335,0.001317,0.008954,0.829429,0.004962,0.026794,1.420700,0.999951,-0.001296,0.000476,0.009762,0.001078,0.008221,0.810746
1790768007.855211,0.010244,-0.000566,0.031171,-0.009610,-0.003840,9.355186,0.449297,0.009182,0.893335,0.001317,0.008954,0.829429,0.004962,0.026794,1.420700,0.999951,-0.001296,0.000476,0.009762,0.001078,0.008221,0.810746
1790768007.858955,0.010767,-0.002682,0.030910,0.000151,-0.001345,9.336447,0.449101,0.009424,0.893431,0.001317,0.008954,0.829429,0.004962,0.026794,1.420700,0.999948,-0.001189,0.000465,0.010071,0.001184,0.008812,0.839091
1790768007.862790,0.009954,-0.000928,0.029851,-0.002340,0.003632,9.322479,0.449101,0.009424,0.893431,0.001317,0.008954,0.829429,0.004962,0.026794,1.420700,0.999948,-0.001189,0.000465,0.010071,0.001184,0.008812,0.839091
1790768007.866886,0.009488,-0.000666,0.031068,-0.005565,-0.011618,9.297302,0.449101,0.009424,0.893431,0.001317,0.008954,0.829429,0.004962,0.026794,1.420700,0.999948,-0.001189,0.000465,0.010071,0.001184,0.008812,0.839091
1790768007.870892,0.008523,-0.000040,0.030837,-0.002500,-0.003756,9.278922,0.449048,0.008840,0.893464,0.001317,0.008954,0.829429,0.004962,0.026794,1.420700,0.999948,-0.001189,0.000465,0.010071,0.001184,0.008812,0.839091
1790768007.875169,0.009794,-0.001282,0.029901,0.000983,0.006064,9.274790,0.449048,0.008840,0.893464,0.001480,0.009823,0.874631,0.005220,0.027424,1.405675,0.999948,-0.001189,0.000465,0.010071,0.001184,0.008812,0.839091
1790768007.878961,0.009355,-0.002185,0.028876,-0.000030,0.003645,9.266957,0.449273,0.008646,0.893353,0.001480,0.009823,0.874631,0.005220,0.027424,1.405675,0.999945,-0.001094,0.000453,0.010373,0.001293,0.009405,0.867246
1790768007.882640,0.008848,-0.001453,0.031178,0.002070,-0.004819,9.271852,0.449273,0.008646,0.893353,0.001480,0.009823,0.874631,0.005220,0.027424,1.405675,0.999945,-0.001094,0.000453,0.010373,0.001293,0.009405,0.867246
1790768007.886963,0.008422,-0.001130,0.029165,0.002179,-0.001174,9.248191,0.449273,0.008646,0.893353,0.001480,0.009823,0.874631,0.005220,0.027424,1.405675,0.999945,-0.001094,0.000453,0.010373,0.001293,0.009405,0.867246
1790768007.890919,0.007934,-0.000855,0.029039,-0.011767,0.000055,9.231898,0.449377,0.008802,0.893299,0.001480,0.009823,0.874631,0.005220,0.027424,1.405675,0.999945,-0.001094,0.000453,0.010373,0.001293,0.009405,0.867246
1790768007.894637,0.008047,0.000267,0.031025,-0.013782,-0.000339,9.229792,0.449377,0.008802,0.893299,0.001480,0.009823,0.874631,0.005220,0.027424,1.405675,0.999945,-0.001094,0.000453,0.010373,0.001293,0.009405,0.867246
1790768007.898737,0.006520,-0.000644,0.027932,-0.006672,-0.015472,9.206078,0.449261,0.008821,0.893357,0.001480,0.009823,0.874631,0.005220,0.027424,1.405675,0.999942,-0.001011,0.000438,0.010667,0.001407,0.009999,0.895184
1790768007.910553,0.006363,0.000223,0.027620,-0.000228,-0.007220,9.180912,0.449107,0.008933,0.893433,0.001672,0.010823,0.924832,0.005491,0.028015,1.384881,0.999942,-0.001011,0.000438,0.010667,0.001407,0.009999,0.895184
1790768007.911557,0.006950,-0.000099,0.027914,-0.002949,0.000324,9.169997,0.449107,0.008933,0.893433,0.001672,0.010823,0.924832,0.005491,0.028015,1.384881,0.999942,-0.001011,0.000438,0.010667,0.001407,0.009999,0.895184
1790768007.912167,0.006950,-0.000099,0.027914,-0.002949,0.000324,9.169997,0.449107,0.008933,0.893433,0.001672,0.010823,0.924832,0.005491,0.028015,1.384881,0.999942,-0.001011,0.000438,0.010667,0.001407,0.009999,0.895184
1790768007.915016,0.008555,-0.003057,0.027624,-0.007441,-0.014870,9.166690,0.449107,0.008933,0.893433,0.001672,0.010823,0.924832,0.005491,0.028015,1.384881,0.999942,-0.001011,0.000438,0.010667,0.001407,0.009999,0.895184
1790768007.919528,0.008471,-0.002107,0.027618,0.002387,0.003822,9.170857,0.449036,0.008099,0.893477,0.001672,0.010823,0.924832,0.005491,0.028015,1.384881,0.999939,-0.000936,0.000421,0.010954,0.001525,0.010595,0.922881
1790768007.923408,0.005881,-0.001640,0.028297,-0.002803,-0.005987,9.166846,0.449036,0.008099,0.893477,0.001672,0.010823,0.924832,0.005491,0.028015,1.384881,0.999939,-0.000936,0.000421,0.010954,0.001525,0.010595,0.922881
1790768007.927196,0.006568,-0.001104,0.027034,0.001607,-0.010835,9.158355,0.449036,0.008099,0.893477,0.001672,0.010823,0.924832,0.005491,0.028015,1.384881,0.999939,-0.000936,0.000421,0.010954,0.001525,0.010595,0.922881
1790768007.931288,0.005790,-0.000652,0.027210,-0.012940,-0.002705,9.173193,0.449394,0.008320,0.893295,0.001672,0.010823,0.924832,0.005491,0.028015,1.384881,0.999939,-0.000936,0.000421,0.010954,0.001525,0.010595,0.922881
1790768007.935419,0.005450,-0.002414,0.028709,0.004287,0.008152,9.150167,0.449394,0.008320,0.893295,0.001672,0.010823,0.924832,0.005491,0.028015,1.384881,0.999939,-0.000936,0.000421,0.010954,0.001525,0.010595,0.922881
1790768007.940142,0.007359,-0.001389,0.026322,-0.009848,0.004969,9.132973,0.449412,0.008342,0.893285,0.001672,0.010823,0.924832,0.005491,0.028015,1.384881,0.999936,-0.000868,0.000401,0.011233,0.001647,0.011194,0.950324
1790768007.943355,0.007179,-0.001421,0.025628,-0.005077,-0.000665,9.107125,0.449412,0.008342,0.893285,0.001852,0.011728,0.968781,0.005712,0.028459,1.364208,0.999936,-0.000868,0.000401,0.011233,0.001647,0.011194,0.950324
1790768007.946676,0.006192,-0.003951,0.027474,-0.001131,-0.007205,9.114286,0.449412,0.008342,0.893285,0.001852,0.011728,0.968781,0.005712,0.028459,1.364208,0.999936,-0.000868,0.000401,0.011233,0.001647,0.011194,0.950324
1790768007.950695,0.006853,-0.004762,0.028277,-0.013991,0.003090,9.104745,0.449267,0.008410,0.893358,0.001852,0.011728,0.968781,0.005712,0.028459,1.364208,0.999936,-0.000868,0.000401,0.011233,0.001647,0.011194,0.950324
1790768007.955205,0.006324,-0.003505,0.027372,-0.006464,-0.013737,9.100877,0.449267,0.008410,0.893358,0.001852,0.011728,0.968781,0.005712,0.028459,1.364208,0.999936,-0.000868,0.000401,0.011233,0.001647,0.011194,0.950324
1790768007.960795,0.006850,-0.002897,0.026432,-0.002070,-0.000329,9.105079,0.449199,0.008072,0.893395,0.001852,0.011728,0.968781,0.005712,0.028459,1.364208,0.999933,-0.000803,0.000379,0.011505,0.001772,0.011796,0.977497
1790768007.962693,0.006624,-0.002977,0.029493,-0.000443,-0.006186,9.104406,0.449199,0.008072,0.893395,0.001852,0.011728,0.968781,0.005712,0.028459,1.364208,0.999933,-0.000803,0.000379,0.011505,0.001772,0.011796,0.977497
1790768007.966804,0.006213,-0.002615,0.026626,-0.000112,-0.007706,9.072471,0.449199,0.008072,0.893395,0.001852,0.011728,0.968781,0.005712,0.028459,1.364208,0.999933,-0.000803,0.000379,0.011505,0.001772,0.011796,0.977497
1790768007.971086,0.005109,-0.001147,0.026206,0.003838,0.003922,9.058008,0.449249,0.008455,0.893367,0.001852,0.011728,0.968781,0.005712,0.028459,1.364208,0.999933,-0.000803,0.000379,0.011505,0.001772,0.011796,0.977497
1790768007.975323,0.005509,-0.002362,0.027170,0.005139,-0.002467,9.039996,0.449249,0.008455,0.893367,0.002038,0.012645,1.012030,0.005911,0.028835,1.341395,0.999933,-0.000803,0.000379,0.011505,0.001772,0.011796,0.977497
1790768007.979877,0.005784,-0.001206,0.026563,0.010731,-0.001216,9.044076,0.449228,0.007767,0.893383,0.002038,0.012645,1.012030,0.005911,0.028835,1.341395,0.999930,-0.000740,0.000357,0.011769,0.001900,0.012402,1.004384
1790768007.982850,0.005603,-0.002110,0.026511,-0.002465,-0.002437,9.036654,0.449228,0.007767,0.893383,0.002038,0.012645,1.012030,0.005911,0.028835,1.341395,0.999930,-0.000740,0.000357,0.011769,0.001900,0.012402,1.004384
1790768007.986840,0.006321,-0.003710,0.027244,0.002557,-0.000521,9.039635,0.449228,0.007767,0.893383,0.002038,0.012645,1.012030,0.005911,0.028835,1.341395,0.999930,-0.000740,0.000357,0.011769,0.001900,0.012402,1.004384
1790768007.991474,0.004863,-0.002722,0.024826,-0.001635,0.004430,9.026040,0.449170,0.008235,0.893408,0.002038,0.012645,1.012030,0.005911,0.028835,1.341395,0.999930,-0.000740,0.000357,0.011769,0.001900,0.012402,1.004384
1790768007.994843,0.005414,-0.001162,0.024928,0.000956,0.005428,9.008702,0.449170,0.008235,0.893408,0.002038,0.012645,1.012030,0.005911,0.028835,1.341395,0.999930,-0.000740,0.000357,0.011769,0.001900,0.012402,1.004384
1790768007.999095,0.004551,-0.000335,0.025163,-0.007201,0.004517,9.007779,0.449294,0.007783,0.893350,0.002038,0.012645,1.012030,0.005911,0.028835,1.341395,0.999927,-0.000680,0.000337,0.012025,0.002029,0.013011,1.030966
1790768008.003499,0.004745,-0.001754,0.025618,-0.006692,0.004891,8.991873,0.449294,0.007783,0.893350,0.002038,0.012645,1.012030,0.005911,0.028835,1.341395,0.999927,-0.000680,0.000337,0.012025,0.002029,0.013011,1.030966
1790768008.007927,0.007268,-0.001842,0.024309,0.001974,0.003341,8.980867,0.449294,0.007783,0.893350,0.002229,0.013574,1.054510,0.006088,0.029148,1.316354,0.999927,-0.000680,0.000337,0.012025,0.002029,0.013011,1.030966
1790768008.010764,0.006749,-0.001913,0.025706,0.007408,0.000051,8.979661,0.449198,0.008052,0.893396,0.002229,0.013574,1.054510,0.006088,0.029148,1.316354,0.999927,-0.000680,0.000337,0.012025,0.002029,0.013011,1.030966
1790768008.014691,0.006470,-0.002851,0.025524,0.011008,-0.015712,8.972933,0.449198,0.008052,0.893396,0.002229,0.013574,1.054510,0.006088,0.029148,1.316354,0.999927,-0.000680,0.000337,0.012025,0.002029,0.013011,1.030966
1790768008.020338,0.006600,-0.002173,0.025228,0.001134,-0.002828,8.963940,0.449307,0.007876,0.893343,0.002229,0.013574,1.054510,0.006088,0.029148,1.316354,0.999924,-0.000620,0.000318,0.012274,0.002160,0.013623,1.057226
1790768008.023280,0.005666,-0.001911,0.025391,-0.002740,-0.013494,8.970881,0.449307,0.007876,0.893343,0.002229,0.013574,1.054510,0.006088,0.029148,1.316354,0.999924,-0.000620,0.000318,0.012274,0.002160,0.013623,1.057226
1790768008.027138,0.004034,-0.001813,0.024600,0.001809,-0.002142,8.971586,0.449307,0.007876,0.893343,0.002229,0.013574,1.054510,0.006088,0.029148,1.316354,0.999924,-0.000620,0.000318,0.012274,0.002160,0.013623,1.057226
1790768008.031104,0.005411,-0.003201,0.025901,-0.004793,0.002377,8.949106,0.449410,0.007698,0.893292,0.002229,0.013574,1.054510,0.006088,0.029148,1.316354,0.999924,-0.000620,0.000318,0.012274,0.002160,0.013623,1.057226
1790768008.034956,0.005003,-0.002441,0.023528,-0.001580,-0.004769,8.956854,0.449410,0.007698,0.893292,0.002229,0.013574,1.054510,0.006088,0.029148,1.316354,0.999924,-0.000620,0.000318,0.012274,0.002160,0.013623,1.057226
1790768008.039108,0.005431,-0.002497,0.022958,0.010759,-0.010830,8.972199,0.449511,0.007975,0.893239,0.002229,0.013574,1.054510,0.006088,0.029148,1.316354,0.999922,-0.000563,0.000299,0.012513,0.002294,0.014238,1.083152
1790768008.043408,0.006388,-0.002074,0.023440,0.002083,-0.007819,8.964709,0.449511,0.007975,0.893239,0.002452,0.014629,1.101297,0.006264,0.029429,1.286232,0.999922,-0.000563,0.000299,0.012513,0.002294,0.014238,1.083152
1790768008.047161,0.004832,-0.002396,0.024241,0.009134,-0.019008,8.958282,0.449511,0.007975,0.893239,0.002452,0.014629,1.101297,0.006264,0.029429,1.286232,0.999922,-0.000563,0.000299,0.012513,0.002294,0.014238,1.083152
1790768008.051190,0.005377,-0.003151,0.022548,0.005712,0.003060,8.935099,0.449659,0.007911,0.893165,0.002452,0.014629,1.101297,0.006264,0.029429,1.286232,0.999922,-0.000563,0.000299,0.012513,0.002294,0.014238,1.083152
1790768008.054921,0.004114,-0.002721,0.023015,0.005706,-0.000127,8.927312,0.449659,0.007911,0.893165,0.002452,0.014629,1.101297,0.006264,0.029429,1.286232,0.999922,-0.000563,0.000299,0.012513,0.002294,0.014238,1.083152
1790768008.059019,0.005019,-0.002200,0.023064,-0.001347,0.000166,8.927752,0.449226,0.007349,0.893388,0.002452,0.014629,1.101297,0.006264,0.029429,1.286232,0.999919,-0.000514,0.000278,0.012742,0.002429,0.014851,1.108739
1790768008.063328,0.004107,-0.001298,0.021586,-0.000838,-0.008283,8.920607,0.449226,0.007349,0.893388,0.002452,0.014629,1.101297,0.006264,0.029429,1.286232,0.999919,-0.000514,0.000278,0.012742,0.002429,0.014851,1.108739
1790768008.066766,0.003663,-0.002895,0.022547,0.004793,-0.008563,8.904573,0.449226,0.007349,0.893388,0.002452,0.014629,1.101297,0.006264,0.029429,1.286232,0.999919,-0.000514,0.000278,0.012742,0.002429,0.014851,1.108739
1790768008.071002,0.002658,-0.002744,0.020495,0.007655,-0.006484,8.915904,0.449419,0.007431,0.893290,0.002452,0.014629,1.101297,0.006264,0.029429,1.286232,0.999919,-0.000514,0.000278,0.012742,0.002429,0.014851,1.108739
1790768008.078735,0.001971,-0.002112,0.020369,-0.001645,-0.000961,8.902828,0.449419,0.007431,0.893290,0.002654,0.015575,1.141955,0.006401,0.029622,1.258185,0.999919,-0.000514,0.000278,0.012742,0.002429,0.014851,1.108739
1790768008.080870,0.003035,-0.001458,0.022520,-0.005963,0.003678,8.896012,0.449353,0.007608,0.893322,0.002654,0.015575,1.141955,0.006401,0.029622,1.258185,0.999916,-0.000479,0.000257,0.012960,0.002567,0.015459,1.133973
1790768008.082896,0.004076,-0.002141,0.020920,-0.018995,0.008485,8.876494,0.449353,0.007608,0.893322,0.002654,0.015575,1.141955,0.006401,0.029622,1.258185,0.999916,-0.000479,0.000257,0.012960,0.002567,0.015459,1.133973
1790768008.086866,0.002673,-0.001468,0.021586,-0.005015,0.000210,8.876812,0.449353,0.007608,0.893322,0.002654,0.015575,1.141955,0.006401,0.029622,1.258185,0.999916,-0.000479,0.000257,0.012960,0.002567,0.015459,1.133973
1790768008.090978,0.002455,-0.002853,0.020459,-0.005552,-0.014451,8.856469,0.449649,0.007484,0.893174,0.002654,0.015575,1.141955,0.006401,0.029622,1.258185,0.999916,-0.000479,0.000257,0.012960,0.002567,0.015459,1.133973
1790768008.094914,0.003160,-0.001338,0.021292,-0.002015,-0.002836,8.852706,0.449649,0.007484,0.893174,0.002654,0.015575,1.141955,0.006401,0.029622,1.258185,0.999916,-0.000479,0.000257,0.012960,0.002567,0.015459,1.133973
1790768008.099198,0.001069,-0.003192,0.020348,0.004866,-0.000766,8.868238,0.449723,0.007034,0.893140,0.002654,0.015575,1.141955,0.006401,0.029622,1.258185,0.999913,-0.000457,0.000235,0.013166,0.002707,0.016064,1.158842
1790768008.102592,0.002416,-0.002245,0.020844,-0.001174,0.010586,8.857240,0.449723,0.007034,0.893140,0.002654,0.015575,1.141955,0.006401,0.029622,1.258185,0.999913,-0.000457,0.000235,0.013166,0.002707,0.016064,1.158842
1790768008.107064,-0.000477,-0.002734,0.018443,-0.002770,-0.007486,8.856017,0.449723,0.007034,0.893140,0.002860,0.016526,1.181685,0.006516,0.029782,1.228451,0.999913,-0.000457,0.000235,0.013166,0.002707,0.016064,1.158842
1790768008.110586,0.000567,-0.000154,0.019274,0.010912,0.005428,8.847108,0.449558,0.007482,0.893220,0.002860,0.016526,1.181685,0.006516,0.029782,1.228451,0.999913,-0.000457,0.000235,0.013166,0.002707,0.016064,1.158842
1790768008.114601,0.000245,-0.003120,0.019907,-0.002496,-0.011015,8.843647,0.449558,0.007482,0.893220,0.002860,0.016526,1.181685,0.006516,0.029782,1.228451,0.999913,-0.000457,0.000235,0.013166,0.002707,0.016064,1.158842
1790768008.118735,0.000370,-0.001809,0.018532,-0.003018,-0.002612,8.832695,0.449767,0.007394,0.893115,0.002860,0.016526,1.181685,0.006516,0.029782,1.228451,0.999911,-0.000446,0.000212,0.013362,0.002848,0.016666,1.183334
1790768008.123051,-0.000291,-0.002889,0.018511,0.001697,0.003504,8.816998,0.449767,0.007394,0.893115,0.002860,0.016526,1.181685,0.006516,0.029782,1.228451,0.999911,-0.000446,0.000212,0.013362,0.002848,0.016666,1.183334
1790768008.126979,-0.000731,-0.002433,0.019625,-0.000323,0.003573,8.822174,0.449767,0.007394,0.893115,0.002860,0.016526,1.181685,0.006516,0.029782,1.228451,0.999911,-0.000446,0.000212,0.013362,0.002848,0.016666,1.183334
1790768008.130912,-0.000052,-0.000932,0.018912,0.001092,-0.008184,8.817579,0.449599,0.007255,0.893201,0.002860,0.016526,1.181685,0.006516,0.029782,1.228451,0.999911,-0.000446,0.000212,0.013362,0.002848,0.016666,1.183334
1790768008.134694,0.000223,-0.000552,0.019429,0.000225,-0.012802,8.815867,0.449599,0.007255,0.893201,0.002860,0.016526,1.181685,0.006516,0.029782,1.228451,0.999911,-0.000446,0.000212,0.013362,0.002848,0.016666,1.183334
1790768008.138878,-0.000564,-0.001070,0.018508,0.003680,-0.003413,8.815318,0.449443,0.007000,0.893282,0.003070,0.017482,1.220436,0.006610,0.029929,1.197185,0.999908,-0.000442,0.000189,0.013548,0.002991,0.017266,1.207436
1790768008.142824,-0.001079,-0.002126,0.017438,0.005338,-0.007666,8.810336,0.449443,0.007000,0.893282,0.003070,0.017482,1.220436,0.006610,0.029929,1.197185,0.999908,-0.000442,0.000189,0.013548,0.002991,0.017266,1.207436
1790768008.146658,-0.001092,-0.002875,0.018619,0.006602,0.001064,8.792046,0.449443,0.007000,0.893282,0.003070,0.017482,1.220436,0.006610,0.029929,1.197185,0.999908,-0.000442,0.000189,0.013548,0.002991,0.017266,1.207436
1790768008.152356,0.000112,-0.002738,0.016523,-0.005910,-0.006621,8.789114,0.449835,0.007104,0.893083,0.003070,0.017482,1.220436,0.006610,0.029929,1.197185,0.999908,-0.000442,0.000189,0.013548,0.002991,0.017266,1.207436
1790768008.156009,-0.000087,-0.001897,0.017067,0.002718,0.013923,8.768838,0.449835,0.007104,0.893083,0.003070,0.017482,1.220436,0.006610,0.029929,1.197185,0.999908,-0.000442,0.000189,0.013548,0.002991,0.017266,1.207436
1790768008.159971,-0.000731,-0.002978,0.016671,-0.000949,-0.006775,8.771177,0.449707,0.007293,0.893146,0.003070,0.017482,1.220436,0.006610,0.029929,1.197185,0.999906,-0.000442,0.000163,0.013723,0.003136,0.017865,1.231137
1790768008.163600,-0.001861,-0.003117,0.015826,0.002133,-0.009416,8.791797,0.449707,0.007293,0.893146,0.003070,0.017482,1.220436,0.006610,0.029929,1.197185,0.999906,-0.000442,0.000163,0.013723,0.003136,0.017865,1.231137
1790768008.167680,0.000522,-0.003834,0.015298,-0.010100,-0.010498,8.765161,0.449707,0.007293,0.893146,0.003070,0.017482,1.220436,0.006610,0.029929,1.197185,0.999906,-0.000442,0.000163,0.013723,0.003136,0.017865,1.231137
1790768008.172340,-0.001841,-0.002592,0.016511,-0.004846,-0.012250,8.764773,0.449439,0.007022,0.893283,0.003070,0.017482,1.220436,0.006610,0.029929,1.197185,0.999906,-0.000442,0.000163,0.013723,0.003136,0.017865,1.231137
1790768008.175751,-0.000251,-0.000821,0.016194,-0.005658,-0.011050,8.777717,0.449439,0.007022,0.893283,0.003309,0.018562,1.262804,0.006687,0.030090,1.160535,0.999906,-0.000442,0.000163,0.013723,0.003136,0.017865,1.231137
1790768008.179913,0.000082,-0.003814,0.017580,0.000214,0.011025,8.785325,0.449448,0.006678,0.893281,0.003309,0.018562,1.262804,0.006687,0.030090,1.160535,0.999903,-0.000444,0.000138,0.013889,0.003282,0.018466,1.254430
1790768008.183459,-0.000763,-0.002630,0.016282,-0.000953,-0.003727,8.798869,0.449448,0.006678,0.893281,0.003309,0.018562,1.262804,0.006687,0.030090,1.160535,0.999903,-0.000444,0.000138,0.013889,0.003282,0.018466,1.254430
1790768008.187999,-0.001041,-0.004208,0.016337,0.008593,0.001520,8.793524,0.449448,0.006678,0.893281,0.003309,0.018562,1.262804,0.006687,0.030090,1.160535,0.999903,-0.000444,0.000138,0.013889,0.003282,0.018466,1.254430
1790768008.191390,-0.000328,-0.002240,0.015979,0.006446,-0.000264,8.797129,0.449829,0.006608,0.893090,0.003309,0.018562,1.262804,0.006687,0.030090,1.160535,0.999903,-0.000444,0.000138,0.013889,0.003282,0.018466,1.254430
1790768008.195677,-0.000580,-0.001188,0.014546,-0.003093,0.008752,8.772633,0.449829,0.006608,0.893090,0.003309,0.018562,1.262804,0.006687,0.030090,1.160535,0.999903,-0.000444,0.000138,0.013889,0.003282,0.018466,1.254430
1790768008.199955,-0.000537,-0.002313,0.015305,0.007135,0.003663,8.786933,0.449827,0.006531,0.893092,0.003309,0.018562,1.262804,0.006687,0.030090,1.160535,0.999901,-0.000446,0.000113,0.014047,0.003428,0.019068,1.277318
1790768008.203587,-0.000545,-0.002117,0.015548,0.014260,0.004006,8.764066,0.449827,0.006531,0.893092,0.003309,0.018562,1.262804,0.006687,0.030090,1.160535,0.999901,-0.000446,0.000113,0.014047,0.003428,0.019068,1.277318
1790768008.207546,-0.001655,-0.002540,0.015526,0.002363,-0.005391,8.773043,0.449827,0.006531,0.893092,0.003523,0.019528,1.299359,0.006732,0.030235,1.128036,0.999901,-0.000446,0.000113,0.014047,0.003428,0.019068,1.277318
1790768008.211613,-0.000277,-0.001168,0.014507,-0.002731,-0.005209,8.758784,0.449819,0.006812,0.893094,0.003523,0.019528,1.299359,0.006732,0.030235,1.128036,0.999901,-0.000446,0.000113,0.014047,0.003428,0.019068,1.277318
1790768008.215167,0.000313,-0.003462,0.015368,-0.001929,-0.003544,8.772781,0.449819,0.006812,0.893094,0.003523,0.019528,1.299359,0.006732,0.030235,1.128036,0.999901,-0.000446,0.000113,0.014047,0.003428,0.019068,1.277318
1790768008.220173,-0.001210,-0.002581,0.013400,-0.001913,0.006693,8.777605,0.450111,0.006517,0.892949,0.003523,0.019528,1.299359,0.006732,0.030235,1.128036,0.999899,-0.000449,0.000089,0.014195,0.003575,0.019672,1.299796
1790768008.224097,-0.001885,-0.002665,0.014152,-0.007246,-0.006629,8.768555,0.450111,0.006517,0.892949,0.003523,0.019528,1.299359,0.006732,0.030235,1.128036,0.999899,-0.000449,0.000089,0.014195,0.003575,0.019672,1.299796
1790768008.227722,-0.000159,-0.002811,0.014253,-0.001973,-0.001779,8.759284,0.450111,0.006517,0.892949,0.003523,0.019528,1.299359,0.006732,0.030235,1.128036,0.999899,-0.000449,0.000089,0.014195,0.003575,0.019672,1.299796
1790768008.231645,-0.000760,-0.003408,0.013747,0.003053,0.004573,8.742815,0.449846,0.006366,0.893083,0.003523,0.019528,1.299359,0.006732,0.030235,1.128036,0.999899,-0.000449,0.000089,0.014195,0.003575,0.019672,1.299796
1790768008.235621,-0.000651,-0.003177,0.013507,-0.004050,-0.000224,8.752340,0.449846,0.006366,0.893083,0.003523,0.019528,1.299359,0.006732,0.030235,1.128036,0.999899,-0.000449,0.000089,0.014195,0.003575,0.019672,1.299796
1790768008.240313,-0.000482,-0.001891,0.015296,0.001713,0.001544,8.743507,0.449924,0.006018,0.893047,0.003738,0.020498,1.334860,0.006753,0.030382,1.094744,0.999897,-0.000451,0.000064,0.014334,0.003722,0.020278,1.321860
1790768008.243586,-0.002147,-0.002862,0.013294,0.002271,0.008534,8.730977,0.449924,0.006018,0.893047,0.003738,0.020498,1.334860,0.006753,0.030382,1.094744,0.999897,-0.000451,0.000064,0.014334,0.003722,0.020278,1.321860
1790768008.247339,-0.000417,-0.003053,0.013838,0.000194,-0.003265,8.740722,0.449924,0.006018,0.893047,0.003738,0.020498,1.334860,0.006753,0.030382,1.094744,0.999897,-0.000451,0.000064,0.014334,0.003722,0.020278,1.321860
1790768008.251598,0.000476,-0.002117,0.013246,-0.001802,0.001222,8.734494,0.450162,0.006079,0.892926,0.003738,0.020498,1.334860,0.006753,0.030382,1.094744,0.999897,-0.000451,0.000064,0.014334,0.003722,0.020278,1.321860
1790768008.255552,-0.001728,-0.003240,0.010939,0.022699,-0.011364,8.738407,0.450162,0.006079,0.892926,0.003738,0.020498,1.334860,0.006753,0.030382,1.094744,0.999897,-0.000451,0.000064,0.014334,0.003722,0.020278,1.321860
1790768008.259308,-0.000646,-0.001459,0.012362,-0.012882,-0.010242,8.721915,0.449628,0.006284,0.893194,0.003738,0.020498,1.334860,0.006753,0.030382,1.094744,0.999895,-0.000457,0.000040,0.014463,0.003868,0.020885,1.343501
1790768008.264449,-0.001207,-0.003209,0.012852,0.021195,0.000417,8.719828,0.449628,0.006284,0.893194,0.003738,0.020498,1.334860,0.006753,0.030382,1.094744,0.999895,-0.000457,0.000040,0.014463,0.003868,0.020885,1.343501
1790768008.267947,-0.001216,-0.002452,0.010491,0.007640,0.001493,8.691927,0.449628,0.006284,0.893194,0.003738,0.020498,1.334860,0.006753,0.030382,1.094744,0.999895,-0.000457,0.000040,0.014463,0.003868,0.020885,1.343501
1790768008.271782,-0.001787,-0.002035,0.012280,0.002011,-0.003381,8.719927,0.449616,0.006064,0.893201,0.003954,0.021473,1.369279,0.006752,0.030527,1.060481,0.999895,-0.000457,0.000040,0.014463,0.003868,0.020885,1.343501
1790768008.276007,-0.000511,-0.003105,0.012481,0.001306,-0.002767,8.715416,0.449616,0.006064,0.893201,0.003954,0.021473,1.369279,0.006752,0.030527,1.060481,0.999895,-0.000457,0.000040,0.014463,0.003868,0.020885,1.343501
1790768008.284033,-0.002499,-0.001978,0.012115,0.008716,-0.012384,8.711426,0.449616,0.006064,0.893201,0.003954,0.021473,1.369279,0.006752,0.030527,1.060481,0.999894,-0.000470,0.000017,0.014581,0.004015,0.021489,1.364710
1790768008.286461,-0.001960,-0.002933,0.010694,0.006479,-0.007547,8.709975,0.449851,0.005931,0.893084,0.003954,0.021473,1.369279,0.006752,0.030527,1.060481,0.999894,-0.000470,0.000017,0.014581,0.004015,0.021489,1.364710
1790768008.287957,-0.001114,-0.003096,0.010860,0.003318,-0.013484,8.710606,0.449851,0.005931,0.893084,0.003954,0.021473,1.369279,0.006752,0.030527,1.060481,0.999894,-0.000470,0.000017,0.014581,0.004015,0.021489,1.364710
1790768008.291695,-0.002015,-0.003607,0.009331,0.002408,-0.002945,8.727546,0.449891,0.006582,0.893059,0.003954,0.021473,1.369279,0.006752,0.030527,1.060481,0.999894,-0.000470,0.000017,0.014581,0.004015,0.021489,1.364710
1790768008.295453,-0.002448,-0.002929,0.011027,0.004767,-0.008639,8.700564,0.449891,0.006582,0.893059,0.003954,0.021473,1.369279,0.006752,0.030527,1.060481,0.999894,-0.000470,0.000017,0.014581,0.004015,0.021489,1.364710
1790768008.299526,-0.002236,-0.002453,0.010092,-0.007288,-0.001610,8.686039,0.449891,0.006277,0.893061,0.003954,0.021473,1.369279,0.006752,0.030527,1.060481,0.999892,-0.000493,-0.000005,0.014689,0.004160,0.022091,1.385484
1790768008.302926,-0.001882,-0.002567,0.008732,-0.004487,-0.005682,8.690603,0.449891,0.006277,0.893061,0.003954,0.021473,1.369279,0.006752,0.030527,1.060481,0.999892,-0.000493,-0.000005,0.014689,0.004160,0.022091,1.385484
1790768008.307308,-0.003480,-0.001755,0.011433,0.010125,-0.005657,8.688065,0.449891,0.006277,0.893061,0.004196,0.022576,1.406669,0.006725,0.030703,1.020943,0.999892,-0.000493,-0.000005,0.014689,0.004160,0.022091,1.385484
1790768008.311355,-0.002277,-0.002458,0.011220,-0.004418,-0.008935,8.701634,0.450058,0.005807,0.892981,0.004196,0.022576,1.406669,0.006725,0.030703,1.020943,0.999892,-0.000493,-0.000005,0.014689,0.004160,0.022091,1.385484
1790768008.315148,-0.002173,-0.003733,0.009443,-0.003773,-0.008571,8.689767,0.450058,0.005807,0.892981,0.004196,0.022576,1.406669,0.006725,0.030703,1.020943,0.999892,-0.000493,-0.000005,0.014689,0.004160,0.022091,1.385484
1790768008.319284,-0.003840,-0.001280,0.009522,-0.001723,-0.004407,8.692104,0.449934,0.005945,0.893042,0.004196,0.022576,1.406669,0.006725,0.030703,1.020943,0.999891,-0.000523,-0.000025,0.014787,0.004304,0.022691,1.405814
1790768008.323009,-0.002341,-0.002324,0.008686,-0.003090,0.002662,8.702627,0.449934,0.005945,0.893042,0.004196,0.022576,1.406669,0.006725,0.030703,1.020943,0.999891,-0.000523,-0.000025,0.014787,0.004304,0.022691,1.405814
1790768008.327207,-0.003320,-0.001418,0.008296,-0.003551,-0.005590,8.711074,0.449934,0.005945,0.893042,0.004196,0.022576,1.406669,0.006725,0.030703,1.020943,0.999891,-0.000523,-0.000025,0.014787,0.004304,0.022691,1.405814
1790768008.331159,-0.003530,-0.001202,0.009208,-0.001420,-0.006173,8.710440,0.450081,0.005852,0.892969,0.004196,0.022576,1.406669,0.006725,0.030703,1.020943,0.999891,-0.000523,-0.000025,0.014787,0.004304,0.022691,1.405814
1790768008.334964,-0.005010,-0.002154,0.008346,0.005215,0.002802,8.722220,0.450081,0.005852,0.892969,0.004196,0.022576,1.406669,0.006725,0.030703,1.020943,0.999891,-0.000523,-0.000025,0.014787,0.004304,0.022691,1.405814
1790768008.339286,-0.003571,-0.000919,0.007376,-0.006312,0.000203,8.715138,0.450205,0.005803,0.892906,0.004409,0.023562,1.438705,0.006681,0.030886,0.985887,0.999889,-0.000559,-0.000044,0.014875,0.004448,0.023290,1.425705
1790768008.342843,-0.003795,-0.002405,0.008545,0.006507,0.005951,8.715044,0.450205,0.005803,0.892906,0.004409,0.023562,1.438705,0.006681,0.030886,0.985887,0.999889,-0.000559,-0.000044,0.014875,0.004448,0.023290,1.425705
1790768008.347016,-0.002833,-0.003095,0.008517,-0.002891,-0.013424,8.698913,0.450205,0.005803,0.892906,0.004409,0.023562,1.438705,0.006681,0.030886,0.985887,0.999889,-0.000559,-0.000044,0.014875,0.004448,0.023290,1.425705
1790768008.351113,-0.003036,-0.003119,0.007619,-0.001918,0.000530,8.699314,0.450345,0.005526,0.892837,0.004409,0.023562,1.438705,0.006681,0.030886,0.985887,0.999889,-0.000559,-0.000044,0.014875,0.004448,0.023290,1.425705
1790768008.354950,-0.006150,-0.001967,0.007290,0.003707,-0.007287,8.704224,0.450345,0.005526,0.892837,0.004409,0.023562,1.438705,0.006681,0.030886,0.985887,0.999889,-0.000559,-0.000044,0.014875,0.004448,0.023290,1.425705
1790768008.359317,-0.004007,-0.001682,0.007925,-0.011959,-0.007052,8.712682,0.450324,0.005635,0.892847,0.004409,0.023562,1.438705,0.006681,0.030886,0.985887,0.999888,-0.000598,-0.000063,0.014954,0.004590,0.023891,1.445160
1790768008.363326,-0.004312,-0.002443,0.006749,-0.001741,-0.010103,8.701716,0.450324,0.005635,0.892847,0.004409,0.023562,1.438705,0.006681,0.030886,0.985887,0.999888,-0.000598,-0.000063,0.014954,0.004590,0.023891,1.445160
1790768008.367320,-0.005169,-0.001775,0.007808,-0.006947,-0.011813,8.721758,0.450324,0.005635,0.892847,0.004409,0.023562,1.438705,0.006681,0.030886,0.985887,0.999888,-0.000598,-0.000063,0.014954,0.004590,0.023891,1.445160
1790768008.371414,-0.002979,-0.000175,0.006179,-0.007444,0.000558,8.701106,0.450047,0.005646,0.892987,0.004622,0.024554,1.469624,0.006620,0.031104,0.950976,0.999888,-0.000598,-0.000063,0.014954,0.004590,0.023891,1.445160
1790768008.375508,-0.004141,-0.002223,0.007262,0.004245,-0.010780,8.698611,0.450047,0.005646,0.892987,0.004622,0.024554,1.469624,0.006620,0.031104,0.950976,0.999888,-0.000598,-0.000063,0.014954,0.004590,0.023891,1.445160
1790768008.379293,-0.004658,-0.002433,0.006669,0.005881,-0.002337,8.692597,0.449973,0.005051,0.893028,0.004622,0.024554,1.469624,0.006620,0.031104,0.950976,0.999887,-0.000637,-0.000080,0.015025,0.004731,0.024494,1.464180
1790768008.383277,-0.003369,-0.001437,0.005312,-0.000729,-0.006020,8.691248,0.449973,0.005051,0.893028,0.004622,0.024554,1.469624,0.006620,0.031104,0.950976,0.999887,-0.000637,-0.000080,0.015025,0.004731,0.024494,1.464180
1790768008.387043,-0.005150,-0.002695,0.005619,0.008603,-0.004275,8.692146,0.449973,0.005051,0.893028,0.004622,0.024554,1.469624,0.006620,0.031104,0.950976,0.999887,-0.000637,-0.000080,0.015025,0.004731,0.024494,1.464180
1790768008.391340,-0.004137,-0.002840,0.007311,0.004297,-0.003862,8.701448,0.449850,0.005169,0.893089,0.004622,0.024554,1.469624,0.006620,0.031104,0.950976,0.999887,-0.000637,-0.000080,0.015025,0.004731,0.024494,1.464180
1790768008.395449,-0.003539,-0.002732,0.006015,0.005729,0.003168,8.714023,0.449850,0.005169,0.893089,0.004622,0.024554,1.469624,0.006620,0.031104,0.950976,0.999887,-0.000637,-0.000080,0.015025,0.004731,0.024494,1.464180
1790768008.399086,-0.003716,-0.000937,0.006942,-0.004301,-0.018208,8.704924,0.450305,0.005557,0.892858,0.004622,0.024554,1.469624,0.006620,0.031104,0.950976,0.999886,-0.000674,-0.000095,0.015088,0.004870,0.025102,1.482759
1790768008.402869,-0.003848,-0.000004,0.004449,0.002171,-0.009722,8.704167,0.450305,0.005557,0.892858,0.004831,0.025554,1.499423,0.006543,0.031355,0.915841,0.999886,-0.000674,-0.000095,0.015088,0.004870,0.025102,1.482759
1790768008.407153,-0.003810,0.000834,0.004857,0.001022,-0.010436,8.705450,0.450305,0.005557,0.892858,0.004831,0.025554,1.499423,0.006543,0.031355,0.915841,0.999886,-0.000674,-0.000095,0.015088,0.004870,0.025102,1.482759
1790768008.411180,-0.003478,-0.000642,0.005816,-0.008294,0.002150,8.693735,0.450127,0.005273,0.892949,0.004831,0.025554,1.499423,0.006543,0.031355,0.915841,0.999886,-0.000674,-0.000095,0.015088,0.004870,0.025102,1.482759
1790768008.414795,-0.003297,-0.001431,0.004734,-0.002721,-0.002675,8.698696,0.450127,0.005273,0.892949,0.004831,0.025554,1.499423,0.006543,0.031355,0.915841,0.999886,-0.000674,-0.000095,0.015088,0.004870,0.025102,1.482759
1790768008.419508,-0.002820,-0.000819,0.005263,0.002568,-0.008752,8.695107,0.450264,0.005222,0.892880,0.004831,0.025554,1.499423,0.006543,0.031355,0.915841,0.999885,-0.000709,-0.000109,0.015143,0.005007,0.025714,1.500899
1790768008.422817,-0.003383,-0.002050,0.004555,-0.003594,0.001728,8.702530,0.450264,0.005222,0.892880,0.004831,0.025554,1.499423,0.006543,0.031355,0.915841,0.999885,-0.000709,-0.000109,0.015143,0.005007,0.025714,1.500899
1790768008.426798,-0.003288,-0.002730,0.005191,-0.005792,-0.006422,8.687801,0.450264,0.005222,0.892880,0.004831,0.025554,1.499423,0.006543,0.031355,0.915841,0.999885,-0.000709,-0.000109,0.015143,0.005007,0.025714,1.500899
1790768008.431179,-0.004804,-0.000810,0.004143,0.000831,-0.009179,8.676237,0.450248,0.004960,0.892890,0.004831,0.025554,1.499423,0.006543,0.031355,0.915841,0.999885,-0.000709,-0.000109,0.015143,0.005007,0.025714,1.500899
1790768008.435454,-0.001605,-0.000667,0.003637,0.005600,0.005137,8.690672,0.450248,0.004960,0.892890,0.004831,0.025554,1.499423,0.006543,0.031355,0.915841,0.999885,-0.000709,-0.000109,0.015143,0.005007,0.025714,1.500899
1790768008.439030,-0.002051,-0.002997,0.003764,0.013499,-0.003365,8.690207,0.449937,0.005317,0.893044,0.005064,0.026689,1.531597,0.006441,0.031674,0.876057,0.999884,-0.000741,-0.000123,0.015192,0.005144,0.026331,1.518597
1790768008.442765,-0.002753,-0.001297,0.002228,-0.009117,-0.005046,8.685457,0.449937,0.005317,0.893044,0.005064,0.026689,1.531597,0.006441,0.031674,0.876057,0.999884,-0.000741,-0.000123,0.015192,0.005144,0.026331,1.518597
1790768008.447378,-0.003308,-0.001452,0.003758,-0.003250,-0.006238,8.684729,0.449937,0.005317,0.893044,0.005064,0.026689,1.531597,0.006441,0.031674,0.876057,0.999884,-0.000741,-0.000123,0.015192,0.005144,0.026331,1.518597
1790768008.450921,-0.002722,-0.000138,0.001537,-0.004447,0.002719,8.684486,0.450274,0.005239,0.892875,0.005064,0.026689,1.531597,0.006441,0.031674,0.876057,0.999884,-0.000741,-0.000123,0.015192,0.005144,0.026331,1.518597
1790768008.455105,-0.004586,-0.001391,0.003093,0.006556,-0.008928,8.678982,0.450274,0.005239,0.892875,0.005064,0.026689,1.531597,0.006441,0.031674,0.876057,0.999884,-0.000741,-0.000123,0.015192,0.005144,0.026331,1.518597
1790768008.459133,-0.002810,-0.001193,0.002538,-0.004992,-0.008786,8.671288,0.450939,0.004979,0.892541,0.005064,0.026689,1.531597,0.006441,0.031674,0.876057,0.999884,-0.000741,-0.000123,0.015192,0.005144,0.026331,1.518597
1790768008.463427,-0.003996,-0.000140,0.004475,-0.006777,0.002796,8.684310,0.450939,0.004979,0.892541,0.005064,0.026689,1.531597,0.006441,0.031674,0.876057,0.999884,-0.000776,-0.000136,0.015232,0.005278,0.026950,1.535850
1790768008.467050,-0.003471,-0.001664,0.003410,0.005525,-0.002730,8.692433,0.450939,0.004979,0.892541,0.005064,0.026689,1.531597,0.006441,0.031674,0.876057,0.999884,-0.000776,-0.000136,0.015232,0.005278,0.026950,1.535850
1790768008.471252,-0.004083,-0.000655,0.004022,0.010611,0.002122,8.708185,0.450278,0.004919,0.892875,0.005268,0.027709,1.558987,0.006337,0.031985,0.840399,0.999884,-0.000776,-0.000136,0.015232,0.005278,0.026950,1.535850
1790768008.475219,-0.005555,-0.002134,0.003037,-0.016391,-0.005148,8.706108,0.450278,0.004919,0.892875,0.005268,0.027709,1.558987,0.006337,0.031985,0.840399,0.999884,-0.000776,-0.000136,0.015232,0.005278,0.026950,1.535850
1790768008.479428,-0.005532,-0.001117,0.002552,-0.002366,-0.000101,8.727593,0.450444,0.004776,0.892792,0.005268,0.027709,1.558987,0.006337,0.031985,0.840399,0.999883,-0.000818,-0.000148,0.015264,0.005411,0.027569,1.552658
1790768008.483414,-0.005434,-0.001655,0.002439,-0.001010,0.009847,8.706361,0.450444,0.004776,0.892792,0.005268,0.027709,1.558987,0.006337,0.031985,0.840399,0.999883,-0.000818,-0.000148,0.015264,0.005411,0.027569,1.552658
1790768008.487902,-0.004779,-0.001827,0.003468,0.004296,0.000103,8.702242,0.450444,0.004776,0.892792,0.005268,0.027709,1.558987,0.006337,0.031985,0.840399,0.999883,-0.000818,-0.000148,0.015264,0.005411,0.027569,1.552658
1790768008.491331,-0.005668,-0.000680,0.002068,-0.005132,-0.001603,8.707910,0.450088,0.005108,0.892970,0.005268,0.027709,1.558987,0.006337,0.031985,0.840399,0.999883,-0.000818,-0.000148,0.015264,0.005411,0.027569,1.552658
1790768008.495338,-0.004870,0.000241,0.003099,-0.008347,-0.011975,8.709263,0.450088,0.005108,0.892970,0.005268,0.027709,1.558987,0.006337,0.031985,0.840399,0.999883,-0.000818,-0.000148,0.015264,0.005411,0.027569,1.552658
1790768008.499748,-0.006355,-0.000968,0.002430,0.000543,0.000706,8.707770,0.450261,0.004765,0.892884,0.005268,0.027709,1.558987,0.006337,0.031985,0.840399,0.999883,-0.000864,-0.000159,0.015287,0.005542,0.028191,1.569030
1790768008.503406,-0.003832,-0.000858,0.000538,0.006827,-0.007737,8.723114,0.450261,0.004765,0.892884,0.005468,0.028738,1.585252,0.006222,0.032334,0.805509,0.999883,-0.000864,-0.000159,0.015287,0.005542,0.028191,1.569030
1790768008.507250,-0.004155,-0.001683,0.002947,0.006595,-0.003595,8.708431,0.450261,0.004765,0.892884,0.005468,0.028738,1.585252,0.006222,0.032334,0.805509,0.999883,-0.000864,-0.000159,0.015287,0.005542,0.028191,1.569030
1790768008.511343,-0.004924,-0.002771,0.002099,0.010735,-0.019218,8.735227,0.450116,0.004636,0.892958,0.005468,0.028738,1.585252,0.006222,0.032334,0.805509,0.999883,-0.000864,-0.000159,0.015287,0.005542,0.028191,1.569030
1790768008.514820,-0.004670,-0.000167,0.001188,0.001785,-0.004977,8.722274,0.450116,0.004636,0.892958,0.005468,0.028738,1.585252,0.006222,0.032334,0.805509,0.999883,-0.000864,-0.000159,0.015287,0.005542,0.028191,1.569030
1790768008.519454,-0.003829,0.000112,0.000272,-0.007758,-0.014627,8.711775,0.450131,0.004607,0.892951,0.005468,0.028738,1.585252,0.006222,0.032334,0.805509,0.999882,-0.000912,-0.000169,0.015303,0.005671,0.028817,1.584967
1790768008.523298,-0.004290,-0.000655,0.002084,-0.002850,0.002716,8.724660,0.450131,0.004607,0.892951,0.005468,0.028738,1.585252,0.006222,0.032334,0.805509,0.999882,-0.000912,-0.000169,0.015303,0.005671,0.028817,1.584967
1790768008.526873,-0.004056,0.000361,0.000670,-0.005790,-0.000652,8.707493,0.450131,0.004607,0.892951,0.005468,0.028738,1.585252,0.006222,0.032334,0.805509,0.999882,-0.000912,-0.000169,0.015303,0.005671,0.028817,1.584967
1790768008.530995,-0.006073,-0.001523,0.001388,-0.002301,0.003939,8.704473,0.450278,0.004759,0.892876,0.005468,0.028738,1.585252,0.006222,0.032334,0.805509,0.999882,-0.000912,-0.000169,0.015303,0.005671,0.028817,1.584967
1790768008.535022,-0.006178,0.000157,0.002296,-0.000908,-0.001225,8.721240,0.450278,0.004759,0.892876,0.005664,0.029780,1.610404,0.006097,0.032725,0.770789,0.999882,-0.000912,-0.000169,0.015303,0.005671,0.028817,1.584967
1790768008.539372,-0.004313,0.000559,0.000536,-0.003075,0.002677,8.723401,0.450031,0.004685,0.893001,0.005664,0.029780,1.610404,0.006097,0.032725,0.770789,0.999882,-0.000959,-0.000179,0.015311,0.005798,0.029448,1.600470
1790768008.542931,-0.005202,-0.002924,0.000849,-0.003265,0.002594,8.724636,0.450031,0.004685,0.893001,0.005664,0.029780,1.610404,0.006097,0.032725,0.770789,0.999882,-0.000959,-0.000179,0.015311,0.005798,0.029448,1.600470
1790768008.547104,-0.003291,-0.001720,0.002327,-0.009183,-0.008616,8.721438,0.450031,0.004685,0.893001,0.005664,0.029780,1.610404,0.006097,0.032725,0.770789,0.999882,-0.000959,-0.000179,0.015311,0.005798,0.029448,1.600470
1790768008.551013,-0.004070,-0.000142,-0.000633,-0.005247,-0.009303,8.714323,0.450246,0.004723,0.892892,0.005664,0.029780,1.610404,0.006097,0.032725,0.770789,0.999882,-0.000959,-0.000179,0.015311,0.005798,0.029448,1.600470
1790768008.555159,-0.006020,-0.001805,0.000427,0.000617,-0.004949,8.707866,0.450246,0.004723,0.892892,0.005664,0.029780,1.610404,0.006097,0.032725,0.770789,0.999882,-0.000959,-0.000179,0.015311,0.005798,0.029448,1.600470
1790768008.559495,-0.006507,-0.000612,-0.000274,-0.008989,-0.000296,8.704319,0.450352,0.004819,0.892838,0.005664,0.029780,1.610404,0.006097,0.032725,0.770789,0.999882,-0.001005,-0.000189,0.015312,0.005924,0.030084,1.615541
1790768008.562737,-0.002694,-0.001685,-0.000142,-0.007066,0.000473,8.713103,0.450352,0.004819,0.892838,0.005664,0.029780,1.610404,0.006097,0.032725,0.770789,0.999882,-0.001005,-0.000189,0.015312,0.005924,0.030084,1.615541
1790768008.566782,-0.004843,-0.001666,0.000337,0.004944,-0.012652,8.728609,0.450352,0.004819,0.892838,0.005664,0.029780,1.610404,0.006097,0.032725,0.770789,0.999882,-0.001005,-0.000189,0.015312,0.005924,0.030084,1.615541
1790768008.571319,-0.003317,-0.002088,-0.001294,0.011472,-0.015310,8.734269,0.450399,0.004174,0.892817,0.005880,0.030968,1.637375,0.005946,0.033214,0.731957,0.999882,-0.001005,-0.000189,0.015312,0.005924,0.030084,1.615541
1790768008.574945,-0.002864,-0.001580,-0.001788,-0.003557,-0.013706,8.733192,0.450399,0.004174,0.892817,0.005880,0.030968,1.637375,0.005946,0.033214,0.731957,0.999882,-0.001005,-0.000189,0.015312,0.005924,0.030084,1.615541
1790768008.579895,-0.005332,-0.001291,-0.001716,-0.002354,-0.007112,8.735497,0.450283,0.004410,0.892875,0.005880,0.030968,1.637375,0.005946,0.033214,0.731957,0.999882,-0.001049,-0.000198,0.015307,0.006048,0.030728,1.630180
1790768008.582692,-0.005094,0.000065,-0.000477,0.001136,-0.004440,8.725908,0.450283,0.004410,0.892875,0.005880,0.030968,1.637375,0.005946,0.033214,0.731957,0.999882,-0.001049,-0.000198,0.015307,0.006048,0.030728,1.630180
1790768008.587104,-0.003403,-0.000008,-0.000694,0.010998,-0.006665,8.734167,0.450283,0.004410,0.892875,0.005880,0.030968,1.637375,0.005946,0.033214,0.731957,0.999882,-0.001049,-0.000198,0.015307,0.006048,0.030728,1.630180
1790768008.591104,-0.005602,-0.000202,-0.000772,-0.009249,-0.000089,8.733803,0.450079,0.004031,0.892979,0.005880,0.030968,1.637375,0.005946,0.033214,0.731957,0.999882,-0.001049,-0.000198,0.015307,0.006048,0.030728,1.630180
1790768008.595099,-0.004525,0.000678,-0.000309,0.004143,-0.010690,8.715104,0.450079,0.004031,0.892979,0.005880,0.030968,1.637375,0.005946,0.033214,0.731957,0.999882,-0.001049,-0.000198,0.015307,0.006048,0.030728,1.630180
1790768008.598933,-0.005032,-0.000322,-0.001136,-0.006976,-0.004392,8.720411,0.450385,0.003961,0.892826,0.005880,0.030968,1.637375,0.005946,0.033214,0.731957,0.999882,-0.001092,-0.000206,0.015295,0.006169,0.031378,1.644391
1790768008.602718,-0.005812,-0.001533,-0.001770,-0.003110,-0.008154,8.735969,0.450385,0.003961,0.892826,0.006067,0.032040,1.660181,0.005803,0.033689,0.697731,0.999882,-0.001092,-0.000206,0.015295,0.006169,0.031378,1.644391
1790768008.606788,-0.004589,-0.001119,-0.000497,-0.009633,-0.006922,8.756466,0.450385,0.003961,0.892826,0.006067,0.032040,1.660181,0.005803,0.033689,0.697731,0.999882,-0.001092,-0.000206,0.015295,0.006169,0.031378,1.644391
1790768008.610713,-0.003098,0.000231,-0.001999,0.004796,-0.012625,8.752345,0.450338,0.004582,0.892847,0.006067,0.032040,1.660181,0.005803,0.033689,0.697731,0.999882,-0.001092,-0.000206,0.015295,0.006169,0.031378,1.644391
1790768008.614623,-0.001711,-0.000745,-0.001634,0.013688,-0.016859,8.766228,0.450338,0.004582,0.892847,0.006067,0.032040,1.660181,0.005803,0.033689,0.697731,0.999882,-0.001092,-0.000206,0.015295,0.006169,0.031378,1.644391
1790768008.618721,-0.003538,0.000147,-0.001568,0.007364,-0.015543,8.774638,0.450143,0.004210,0.892947,0.006067,0.032040,1.660181,0.005803,0.033689,0.697731,0.999883,-0.001132,-0.000214,0.015277,0.006289,0.032035,1.658178
1790768008.622624,-0.004483,0.000074,-0.001000,-0.003300,-0.011480,8.757434,0.450143,0.004210,0.892947,0.006067,0.032040,1.660181,0.005803,0.033689,0.697731,0.999883,-0.001132,-0.000214,0.015277,0.006289,0.032035,1.658178
1790768008.630539,-0.003620,-0.001962,-0.001659,0.006678,-0.010804,8.774437,0.450550,0.004228,0.892741,0.006067,0.032040,1.660181,0.005803,0.033689,0.697731,0.999883,-0.001132,-0.000214,0.015277,0.006289,0.032035,1.658178
1790768008.634925,-0.003651,-0.001914,-0.002422,0.005092,-0.000419,8.769992,0.450550,0.004228,0.892741,0.006067,0.032040,1.660181,0.005803,0.033689,0.697731,0.999883,-0.001132,-0.000214,0.015277,0.006289,0.032035,1.658178
1790768008.635657,-0.003651,-0.001914,-0.002422,0.005092,-0.000419,8.769992,0.450550,0.004228,0.892741,0.006250,0.033127,1.681910,0.005652,0.034202,0.664612,0.999883,-0.001132,-0.000214,0.015277,0.006289,0.032035,1.658178
1790768008.639622,-0.004949,-0.000308,-0.002106,0.001845,-0.006055,8.772352,0.449979,0.004400,0.893028,0.006250,0.033127,1.681910,0.005652,0.034202,0.664612,0.999883,-0.001170,-0.000224,0.015254,0.006407,0.032699,1.671552
1790768008.643207,-0.004366,-0.001353,-0.004108,-0.002749,-0.007690,8.774636,0.449979,0.004400,0.893028,0.006250,0.033127,1.681910,0.005652,0.034202,0.664612,0.999883,-0.001170,-0.000224,0.015254,0.006407,0.032699,1.671552
1790768008.646927,-0.002698,-0.000538,-0.003200,0.003939,-0.014240,8.780316,0.449979,0.004400,0.893028,0.006250,0.033127,1.681910,0.005652,0.034202,0.664612,0.999883,-0.001170,-0.000224,0.015254,0.006407,0.032699,1.671552
1790768008.651311,-0.005665,-0.000571,-0.002753,0.009207,-0.010498,8.787100,0.450365,0.004497,0.892833,0.006250,0.033127,1.681910,0.005652,0.034202,0.664612,0.999883,-0.001170,-0.000224,0.015254,0.006407,0.032699,1.671552
1790768008.655263,-0.004881,-0.000843,-0.002638,-0.002302,-0.009206,8.777206,0.450365,0.004497,0.892833,0.006250,0.033127,1.681910,0.005652,0.034202,0.664612,0.999883,-0.001170,-0.000224,0.015254,0.006407,0.032699,1.671552
1790768008.659337,-0.005197,-0.001213,-0.004282,0.011025,-0.002821,8.770637,0.450585,0.004306,0.892723,0.006250,0.033127,1.681910,0.005652,0.034202,0.664612,0.999883,-0.001208,-0.000234,0.015224,0.006523,0.033370,1.684516
1790768008.663136,-0.004067,-0.000748,-0.002982,-0.006384,-0.009018,8.772171,0.450585,0.004306,0.892723,0.006250,0.033127,1.681910,0.005652,0.034202,0.664612,0.999883,-0.001208,-0.000234,0.015224,0.006523,0.033370,1.684516
1790768008.667280,-0.003397,-0.002440,-0.003299,-0.001583,-0.005826,8.770953,0.450585,0.004306,0.892723,0.006427,0.034231,1.702587,0.005491,0.034747,0.631834,0.999883,-0.001208,-0.000234,0.015224,0.006523,0.033370,1.684516
1790768008.671425,-0.005079,-0.000473,-0.003667,-0.002937,-0.013897,8.765824,0.450638,0.004340,0.892696,0.006427,0.034231,1.702587,0.005491,0.034747,0.631834,0.999883,-0.001208,-0.000234,0.015224,0.006523,0.033370,1.684516
1790768008.675178,-0.003253,0.000269,-0.002400,-0.001491,-0.004214,8.789430,0.450638,0.004340,0.892696,0.006427,0.034231,1.702587,0.005491,0.034747,0.631834,0.999883,-0.001208,-0.000234,0.015224,0.006523,0.033370,1.684516
1790768008.678961,-0.004468,-0.000423,-0.002582,-0.005675,-0.008907,8.774752,0.450323,0.004143,0.892856,0.006427,0.034231,1.702587,0.005491,0.034747,0.631834,0.999884,-0.001250,-0.000241,0.015189,0.006637,0.034047,1.697071
1790768008.683261,-0.005161,-0.000709,-0.002003,0.003425,-0.010051,8.786240,0.450323,0.004143,0.892856,0.006427,0.034231,1.702587,0.005491,0.034747,0.631834,0.999884,-0.001250,-0.000241,0.015189,0.006637,0.034047,1.697071
1790768008.686979,-0.003310,-0.001648,-0.004113,-0.005902,-0.006018,8.800880,0.450323,0.004143,0.892856,0.006427,0.034231,1.702587,0.005491,0.034747,0.631834,0.999884,-0.001250,-0.000241,0.015189,0.006637,0.034047,1.697071
1790768008.691133,-0.003400,0.001026,-0.004661,0.009933,-0.002540,8.789146,0.450495,0.004035,0.892770,0.006427,0.034231,1.702587,0.005491,0.034747,0.631834,0.999884,-0.001250,-0.000241,0.015189,0.006637,0.034047,1.697071
1790768008.695621,-0.004080,-0.000419,-0.004585,0.004321,-0.007099,8.777090,0.450495,0.004035,0.892770,0.006427,0.034231,1.702587,0.005491,0.034747,0.631834,0.999884,-0.001250,-0.000241,0.015189,0.006637,0.034047,1.697071
1790768008.699258,-0.004886,-0.000257,-0.005147,-0.006744,0.003372,8.788672,0.450398,0.004334,0.892818,0.006427,0.034231,1.702587,0.005491,0.034747,0.631834,0.999884,-0.001294,-0.000247,0.015149,0.006747,0.034729,1.709220
1790768008.703451,-0.005289,0.000326,-0.004506,-0.004176,-0.005118,8.787297,0.450398,0.004334,0.892818,0.006621,0.035495,1.724601,0.005302,0.035401,0.595290,0.999884,-0.001294,-0.000247,0.015149,0.006747,0.034729,1.709220
1790768008.707078,-0.005260,-0.000252,-0.004608,0.006566,-0.019273,8.785828,0.450398,0.004334,0.892818,0.006621,0.035495,1.724601,0.005302,0.035401,0.595290,0.999884,-0.001294,-0.000247,0.015149,0.006747,0.034729,1.709220
1790768008.711270,-0.005349,-0.000077,-0.004446,0.006157,-0.009969,8.800319,0.450381,0.003849,0.892828,0.006621,0.035495,1.724601,0.005302,0.035401,0.595290,0.999884,-0.001294,-0.000247,0.015149,0.006747,0.034729,1.709220
1790768008.715173,-0.004601,0.000292,-0.005070,-0.006297,0.003641,8.806030,0.450381,0.003849,0.892828,0.006621,0.035495,1.724601,0.005302,0.035401,0.595290,0.999884,-0.001294,-0.000247,0.015149,0.006747,0.034729,1.709220
1790768008.720041,-0.004936,-0.001272,-0.005531,-0.000032,0.002920,8.812784,0.450757,0.003823,0.892639,0.006621,0.035495,1.724601,0.005302,0.035401,0.595290,0.999885,-0.001340,-0.000253,0.015103,0.006855,0.035418,1.720966
1790768008.723805,-0.006352,0.000469,-0.005025,0.004304,0.003742,8.802570,0.450757,0.003823,0.892639,0.006621,0.035495,1.724601,0.005302,0.035401,0.595290,0.999885,-0.001340,-0.000253,0.015103,0.006855,0.035418,1.720966
1790768008.727336,-0.003916,-0.000535,-0.005020,-0.000429,0.003568,8.814940,0.450757,0.003823,0.892639,0.006621,0.035495,1.724601,0.005302,0.035401,0.595290,0.999885,-0.001340,-0.000253,0.015103,0.006855,0.035418,1.720966
1790768008.731515,-0.004696,-0.001994,-0.003789,0.003582,-0.001008,8.800559,0.450300,0.004136,0.892868,0.006621,0.035495,1.724601,0.005302,0.035401,0.595290,0.999885,-0.001340,-0.000253,0.015103,0.006855,0.035418,1.720966
1790768008.735530,-0.003408,-0.000891,-0.004671,-0.000007,0.014643,8.808459,0.450300,0.004136,0.892868,0.006787,0.036639,1.743075,0.005129,0.036026,0.563362,0.999885,-0.001340,-0.000253,0.015103,0.006855,0.035418,1.720966
1790768008.739999,-0.004858,-0.000745,-0.005819,-0.006572,-0.016347,8.809201,0.450304,0.004093,0.892866,0.006787,0.036639,1.743075,0.005129,0.036026,0.563362,0.999886,-0.001382,-0.000259,0.015053,0.006962,0.036117,1.732313
1790768008.742911,-0.003017,-0.000538,-0.003827,-0.007616,-0.008399,8.808283,0.450304,0.004093,0.892866,0.006787,0.036639,1.743075,0.005129,0.036026,0.563362,0.999886,-0.001382,-0.000259,0.015053,0.006962,0.036117,1.732313
1790768008.747301,-0.004831,0.000408,-0.004675,0.006371,-0.005118,8.823327,0.450304,0.004093,0.892866,0.006787,0.036639,1.743075,0.005129,0.036026,0.563362,0.999886,-0.001382,-0.000259,0.015053,0.006962,0.036117,1.732313
1790768008.751530,-0.002913,-0.000441,-0.004523,-0.003063,0.002403,8.826777,0.450357,0.004048,0.892839,0.006787,0.036639,1.743075,0.005129,0.036026,0.563362,0.999886,-0.001382,-0.000259,0.015053,0.006962,0.036117,1.732313
1790768008.755098,-0.004180,0.001188,-0.006538,-0.002011,-0.016523,8.831667,0.450357,0.004048,0.892839,0.006787,0.036639,1.743075,0.005129,0.036026,0.563362,0.999886,-0.001382,-0.000259,0.015053,0.006962,0.036117,1.732313
1790768008.759542,-0.003787,0.000448,-0.004805,-0.010199,0.008749,8.860136,0.450361,0.004141,0.892837,0.006787,0.036639,1.743075,0.005129,0.036026,0.563362,0.999886,-0.001422,-0.000265,0.014998,0.007065,0.036825,1.743267
1790768008.763168,-0.004981,0.000442,-0.005290,0.009811,-0.007575,8.845420,0.450361,0.004141,0.892837,0.006787,0.036639,1.743075,0.005129,0.036026,0.563362,0.999886,-0.001422,-0.000265,0.014998,0.007065,0.036825,1.743267
1790768008.767336,-0.006089,-0.002040,-0.006689,0.004857,-0.003884,8.853700,0.450361,0.004141,0.892837,0.006947,0.037804,1.760541,0.004949,0.036690,0.532430,0.999886,-0.001422,-0.000265,0.014998,0.007065,0.036825,1.743267
1790768008.771239,-0.003612,-0.001205,-0.007111,-0.002084,-0.007161,8.850006,0.450654,0.004021,0.892690,0.006947,0.037804,1.760541,0.004949,0.036690,0.532430,0.999886,-0.001422,-0.000265,0.014998,0.007065,0.036825,1.743267
1790768008.775053,-0.002024,0.000322,-0.005722,-0.002364,-0.001569,8.861145,0.450654,0.004021,0.892690,0.006947,0.037804,1.760541,0.004949,0.036690,0.532430,0.999886,-0.001422,-0.000265,0.014998,0.007065,0.036825,1.743267
1790768008.779334,-0.003809,-0.000295,-0.005788,-0.008633,0.005135,8.836658,0.450620,0.004221,0.892706,0.006947,0.037804,1.760541,0.004949,0.036690,0.532430,0.999887,-0.001459,-0.000271,0.014939,0.007167,0.037543,1.753840
1790768008.783197,-0.002045,0.000293,-0.006005,-0.001851,-0.001269,8.854296,0.450620,0.004221,0.892706,0.006947,0.037804,1.760541,0.004949,0.036690,0.532430,0.999887,-0.001459,-0.000271,0.014939,0.007167,0.037543,1.753840
1790768008.787093,-0.002795,-0.002004,-0.007467,-0.006575,0.004233,8.871077,0.450620,0.004221,0.892706,0.006947,0.037804,1.760541,0.004949,0.036690,0.532430,0.999887,-0.001459,-0.000271,0.014939,0.007167,0.037543,1.753840
1790768008.791148,-0.003070,-0.001310,-0.005601,0.007671,-0.020176,8.872328,0.450404,0.004158,0.892815,0.006947,0.037804,1.760541,0.004949,0.036690,0.532430,0.999887,-0.001459,-0.000271,0.014939,0.007167,0.037543,1.753840
1790768008.795135,-0.002307,-0.000795,-0.004699,-0.008055,-0.004378,8.872915,0.450404,0.004158,0.892815,0.006947,0.037804,1.760541,0.004949,0.036690,0.532430,0.999887,-0.001459,-0.000271,0.014939,0.007167,0.037543,1.753840
1790768008.799322,-0.004043,0.000757,-0.005777,0.001541,0.010051,8.861677,0.450484,0.004157,0.892775,0.007102,0.038991,1.777037,0.004764,0.037387,0.502466,0.999888,-0.001492,-0.000278,0.014877,0.007267,0.038271,1.764038
1790768008.802797,-0.003851,-0.000637,-0.005312,-0.003088,-0.016662,8.879152,0.450484,0.004157,0.892775,0.007102,0.038991,1.777037,0.004764,0.037387,0.502466,0.999888,-0.001492,-0.000278,0.014877,0.007267,0.038271,1.764038
1790768008.807334,-0.003100,0.000721,-0.005744,-0.001341,0.001184,8.878246,0.450484,0.004157,0.892775,0.007102,0.038991,1.777037,0.004764,0.037387,0.502466,0.999888,-0.001492,-0.000278,0.014877,0.007267,0.038271,1.764038
1790768008.811121,-0.003011,0.000580,-0.007946,-0.003717,-0.003893,8.871907,0.450621,0.004031,0.892706,0.007102,0.038991,1.777037,0.004764,0.037387,0.502466,0.999888,-0.001492,-0.000278,0.014877,0.007267,0.038271,1.764038
1790768008.814966,-0.003750,-0.001218,-0.007148,-0.003427,0.007029,8.865087,0.450621,0.004031,0.892706,0.007102,0.038991,1.777037,0.004764,0.037387,0.502466,0.999888,-0.001492,-0.000278,0.014877,0.007267,0.038271,1.764038
1790768008.819801,-0.003067,-0.000474,-0.006189,-0.002182,-0.004850,8.881832,0.450506,0.003614,0.892766,0.007102,0.038991,1.777037,0.004764,0.037387,0.502466,0.999889,-0.001523,-0.000283,0.014812,0.007363,0.039009,1.773866
1790768008.823922,-0.003271,-0.000075,-0.007814,-0.006523,-0.011205,8.892363,0.450506,0.003614,0.892766,0.007102,0.038991,1.777037,0.004764,0.037387,0.502466,0.999889,-0.001523,-0.000283,0.014812,0.007363,0.039009,1.773866
1790768008.826998,-0.003087,-0.000403,-0.006254,0.001307,0.006311,8.883383,0.450506,0.003614,0.892766,0.007102,0.038991,1.777037,0.004764,0.037387,0.502466,0.999889,-0.001523,-0.000283,0.014812,0.007363,0.039009,1.773866
1790768008.831291,-0.001731,-0.001328,-0.007955,0.001050,-0.007236,8.902115,0.450521,0.004328,0.892756,0.007102,0.038991,1.777037,0.004764,0.037387,0.502466,0.999889,-0.001523,-0.000283,0.014812,0.007363,0.039009,1.773866
1790768008.835337,-0.002652,0.000359,-0.006645,-0.000532,-0.006590,8.898191,0.450521,0.004328,0.892756,0.007269,0.040353,1.794464,0.004549,0.038205,0.469560,0.999889,-0.001523,-0.000283,0.014812,0.007363,0.039009,1.773866
1790768008.839130,-0.001750,-0.000578,-0.007350,0.003034,-0.005479,8.901374,0.450693,0.004166,0.892669,0.007269,0.040353,1.794464,0.004549,0.038205,0.469560,0.999890,-0.001551,-0.000288,0.014743,0.007457,0.039758,1.783329
1790768008.843237,-0.001847,0.001274,-0.005592,-0.005843,-0.003597,8.897000,0.450693,0.004166,0.892669,0.007269,0.040353,1.794464,0.004549,0.038205,0.469560,0.999890,-0.001551,-0.000288,0.014743,0.007457,0.039758,1.783329
1790768008.847291,-0.003351,-0.001475,-0.006251,0.006202,-0.008110,8.908367,0.450693,0.004166,0.892669,0.007269,0.040353,1.794464,0.004549,0.038205,0.469560,0.999890,-0.001551,-0.000288,0.014743,0.007457,0.039758,1.783329
1790768008.850898,-0.001805,-0.000405,-0.006353,-0.005234,-0.004740,8.909601,0.450494,0.003841,0.892771,0.007269,0.040353,1.794464,0.004549,0.038205,0.469560,0.999890,-0.001551,-0.000288,0.014743,0.007457,0.039758,1.783329
1790768008.855321,-0.002932,-0.002169,-0.006174,-0.007067,0.002523,8.900739,0.450494,0.003841,0.892771,0.007269,0.040353,1.794464,0.004549,0.038205,0.469560,0.999890,-0.001551,-0.000288,0.014743,0.007457,0.039758,1.783329
1790768008.859927,-0.003920,-0.000419,-0.008205,-0.000983,-0.006760,8.909902,0.450641,0.004089,0.892696,0.007269,0.040353,1.794464,0.004549,0.038205,0.469560,0.999891,-0.001576,-0.000291,0.014672,0.007548,0.040518,1.792433
1790768008.863325,-0.002486,-0.001065,-0.007278,0.009117,0.002528,8.912364,0.450641,0.004089,0.892696,0.007269,0.040353,1.794464,0.004549,0.038205,0.469560,0.999891,-0.001576,-0.000291,0.014672,0.007548,0.040518,1.792433
1790768008.867467,-0.003656,-0.001009,-0.008510,-0.008575,-0.004830,8.916336,0.450641,0.004089,0.892696,0.007410,0.041590,1.808974,0.004353,0.038958,0.440964,0.999891,-0.001576,-0.000291,0.014672,0.007548,0.040518,1.792433
1790768008.871600,-0.002917,-0.000504,-0.007828,0.001898,-0.003073,8.911255,0.450664,0.004055,0.892684,0.007410,0.041590,1.808974,0.004353,0.038958,0.440964,0.999891,-0.001576,-0.000291,0.014672,0.007548,0.040518,1.792433
1790768008.875289,-0.002202,-0.000261,-0.007356,-0.000883,-0.006525,8.916571,0.450664,0.004055,0.892684,0.007410,0.041590,1.808974,0.004353,0.038958,0.440964,0.999891,-0.001576,-0.000291,0.014672,0.007548,0.040518,1.792433
1790768008.879083,-0.001961,-0.000858,-0.007183,0.016839,-0.004614,8.913882,0.450326,0.004373,0.892854,0.007410,0.041590,1.808974,0.004353,0.038958,0.440964,0.999892,-0.001601,-0.000292,0.014597,0.007635,0.041287,1.801181
1790768008.883015,-0.001826,-0.000968,-0.007472,0.003016,-0.007563,8.908590,0.450326,0.004373,0.892854,0.007410,0.041590,1.808974,0.004353,0.038958,0.440964,0.999892,-0.001601,-0.000292,0.014597,0.007635,0.041287,1.801181
1790768008.887331,-0.001614,0.000468,-0.005328,0.001092,-0.001450,8.920664,0.450326,0.004373,0.892854,0.007410,0.041590,1.808974,0.004353,0.038958,0.440964,0.999892,-0.001601,-0.000292,0.014597,0.007635,0.041287,1.801181
1790768008.890954,-0.001766,-0.000873,-0.005811,-0.001963,-0.012961,8.919374,0.450390,0.003813,0.892824,0.007410,0.041590,1.808974,0.004353,0.038958,0.440964,0.999892,-0.001601,-0.000292,0.014597,0.007635,0.041287,1.801181
1790768008.895312,-0.003565,0.000988,-0.006480,-0.004094,-0.006051,8.923722,0.450390,0.003813,0.892824,0.007410,0.041590,1.808974,0.004353,0.038958,0.440964,0.999892,-0.001601,-0.000292,0.014597,0.007635,0.041287,1.801181
1790768008.899612,-0.002747,0.000522,-0.007458,0.001766,-0.013432,8.934842,0.450808,0.004237,0.892611,0.007546,0.042850,1.822576,0.004155,0.039731,0.412837,0.999893,-0.001625,-0.000289,0.014520,0.007718,0.042066,1.809577
1790768008.903015,-0.001851,0.001172,-0.008276,0.000765,0.001542,8.936810,0.450808,0.004237,0.892611,0.007546,0.042850,1.822576,0.004155,0.039731,0.412837,0.999893,-0.001625,-0.000289,0.014520,0.007718,0.042066,1.809577
1790768008.907220,-0.000418,-0.000740,-0.006837,-0.010504,-0.010060,8.957923,0.450808,0.004237,0.892611,0.007546,0.042850,1.822576,0.004155,0.039731,0.412837,0.999893,-0.001625,-0.000289,0.014520,0.007718,0.042066,1.809577
1790768008.911347,-0.003171,0.000703,-0.008547,0.009078,0.005496,8.951092,0.450593,0.004118,0.892720,0.007546,0.042850,1.822576,0.004155,0.039731,0.412837,0.999893,-0.001625,-0.000289,0.014520,0.007718,0.042066,1.809577
1790768008.914946,-0.002456,0.000897,-0.007851,0.005358,0.001879,8.950197,0.450593,0.004118,0.892720,0.007546,0.042850,1.822576,0.004155,0.039731,0.412837,0.999893,-0.001625,-0.000289,0.014520,0.007718,0.042066,1.809577
1790768008.920687,-0.002823,-0.000100,-0.008479,0.009558,0.003065,8.955148,0.450726,0.004313,0.892652,0.007546,0.042850,1.822576,0.004155,0.039731,0.412837,0.999894,-0.001648,-0.000285,0.014439,0.007797,0.042855,1.817630
1790768008.923501,-0.001693,0.001107,-0.009678,-0.001973,0.003366,8.954062,0.450726,0.004313,0.892652,0.007546,0.042850,1.822576,0.004155,0.039731,0.412837,0.999894,-0.001648,-0.000285,0.014439,0.007797,0.042855,1.817630
1790768008.927320,-0.001819,-0.000541,-0.009188,0.001268,-0.002965,8.970185,0.450726,0.004313,0.892652,0.007546,0.042850,1.822576,0.004155,0.039731,0.412837,0.999894,-0.001648,-0.000285,0.014439,0.007797,0.042855,1.817630
1790768008.931131,-0.002319,0.000704,-0.009849,0.013501,-0.005963,8.970735,0.450265,0.004143,0.892886,0.007675,0.044136,1.835300,0.003962,0.040527,0.385925,0.999894,-0.001648,-0.000285,0.014439,0.007797,0.042855,1.817630
1790768008.935530,-0.001042,0.000386,-0.008632,-0.009638,-0.009388,8.969234,0.450265,0.004143,0.892886,0.007675,0.044136,1.835300,0.003962,0.040527,0.385925,0.999894,-0.001648,-0.000285,0.014439,0.007797,0.042855,1.817630
1790768008.939266,-0.002671,0.000490,-0.008580,-0.001977,0.008268,8.974754,0.450603,0.004245,0.892714,0.007675,0.044136,1.835300,0.003962,0.040527,0.385925,0.999895,-0.001671,-0.000280,0.014357,0.007875,0.043655,1.825349
1790768008.943130,-0.001726,0.001276,-0.009669,0.005801,0.002646,8.989823,0.450603,0.004245,0.892714,0.007675,0.044136,1.835300,0.003962,0.040527,0.385925,0.999895,-0.001671,-0.000280,0.014357,0.007875,0.043655,1.825349
1790768008.946791,-0.001766,0.000103,-0.008624,0.004726,-0.012350,8.967777,0.450603,0.004245,0.892714,0.007675,0.044136,1.835300,0.003962,0.040527,0.385925,0.999895,-0.001671,-0.000280,0.014357,0.007875,0.043655,1.825349
1790768008.951296,-0.001948,0.000283,-0.008404,-0.012235,-0.006165,8.977179,0.450506,0.003701,0.892766,0.007675,0.044136,1.835300,0.003962,0.040527,0.385925,0.999895,-0.001671,-0.000280,0.014357,0.007875,0.043655,1.825349
1790768008.954853,-0.001352,0.000403,-0.008061,0.012350,0.007903,8.975208,0.450506,0.003701,0.892766,0.007675,0.044136,1.835300,0.003962,0.040527,0.385925,0.999895,-0.001671,-0.000280,0.014357,0.007875,0.043655,1.825349
1790768008.959729,-0.001793,0.000143,-0.008771,-0.003314,-0.013269,8.994395,0.450225,0.004452,0.892904,0.007675,0.044136,1.835300,0.003962,0.040527,0.385925,0.999897,-0.001692,-0.000275,0.014273,0.007949,0.044466,1.832739
1790768008.963352,-0.001727,-0.001278,-0.008544,-0.000968,-0.002945,8.989727,0.450225,0.004452,0.892904,0.007675,0.044136,1.835300,0.003962,0.040527,0.385925,0.999897,-0.001692,-0.000275,0.014273,0.007949,0.044466,1.832739
1790768008.967014,-0.002359,0.000268,-0.009132,0.003298,-0.005432,8.999693,0.450225,0.004452,0.892904,0.007813,0.045614,1.848602,0.003749,0.041446,0.356504,0.999897,-0.001692,-0.000275,0.014273,0.007949,0.044466,1.832739
1790768008.972518,-0.001826,0.000829,-0.007174,-0.008731,0.002393,9.000434,0.450487,0.004327,0.892773,0.007813,0.045614,1.848602,0.003749,0.041446,0.356504,0.999897,-0.001692,-0.000275,0.014273,0.007949,0.044466,1.832739
1790768008.975672,-0.002318,0.001617,-0.007645,-0.012487,-0.015527,9.008171,0.450487,0.004327,0.892773,0.007813,0.045614,1.848602,0.003749,0.041446,0.356504,0.999897,-0.001692,-0.000275,0.014273,0.007949,0.044466,1.832739
1790768008.979125,-0.001532,0.001792,-0.008545,0.000003,-0.004742,8.998627,0.450504,0.004431,0.892764,0.007813,0.045614,1.848602,0.003749,0.041446,0.356504,0.999898,-0.001711,-0.000271,0.014188,0.008022,0.045287,1.839805
1790768008.983026,-0.001481,0.001787,-0.008635,-0.002794,-0.008758,9.003204,0.450504,0.004431,0.892764,0.007813,0.045614,1.848602,0.003749,0.041446,0.356504,0.999898,-0.001711,-0.000271,0.014188,0.008022,0.045287,1.839805
1790768008.987221,-0.002117,0.000699,-0.007069,-0.012352,0.004930,9.004943,0.450504,0.004431,0.892764,0.007813,0.045614,1.848602,0.003749,0.041446,0.356504,0.999898,-0.001711,-0.000271,0.014188,0.008022,0.045287,1.839805
1790768008.991381,-0.003086,0.000339,-0.008172,-0.006028,-0.002298,9.006375,0.450441,0.004141,0.892796,0.007813,0.045614,1.848602,0.003749,0.041446,0.356504,0.999898,-0.001711,-0.000271,0.014188,0.008022,0.045287,1.839805
1790768008.995632,-0.001846,0.001025,-0.009377,-0.000369,-0.002495,9.017829,0.450441,0.004141,0.892796,0.007813,0.045614,1.848602,0.003749,0.041446,0.356504,0.999898,-0.001711,-0.000271,0.014188,0.008022,0.045287,1.839805
1790768008.999580,-0.002034,0.001065,-0.008853,0.005171,-0.005624,9.009166,0.450338,0.004614,0.892846,0.007929,0.046955,1.859552,0.003565,0.042282,0.331148,0.999899,-0.001727,-0.000267,0.014101,0.008092,0.046121,1.846553
1790768009.003146,0.000534,0.000345,-0.009447,0.006719,-0.009596,9.027873,0.450338,0.004614,0.892846,0.007929,0.046955,1.859552,0.003565,0.042282,0.331148,0.999899,-0.001727,-0.000267,0.014101,0.008092,0.046121,1.846553
1790768009.007053,-0.000648,-0.000327,-0.008991,-0.000163,-0.005113,9.023428,0.450338,0.004614,0.892846,0.007929,0.046955,1.859552,0.003565,0.042282,0.331148,0.999899,-0.001727,-0.000267,0.014101,0.008092,0.046121,1.846553
1790768009.011288,-0.000719,0.000290,-0.007991,-0.005920,-0.007531,9.040346,0.450561,0.004469,0.892734,0.007929,0.046955,1.859552,0.003565,0.042282,0.331148,0.999899,-0.001727,-0.000267,0.014101,0.008092,0.046121,1.846553
1790768009.015008,-0.000517,-0.000417,-0.007739,-0.003760,-0.008422,9.052781,0.450561,0.004469,0.892734,0.007929,0.046955,1.859552,0.003565,0.042282,0.331148,0.999899,-0.001727,-0.000267,0.014101,0.008092,0.046121,1.846553
1790768009.019472,-0.001873,0.001729,-0.006643,-0.000698,-0.004872,9.058592,0.450395,0.004321,0.892819,0.007929,0.046955,1.859552,0.003565,0.042282,0.331148,0.999900,-0.001738,-0.000264,0.014012,0.008161,0.046968,1.852993
1790768009.023258,-0.000533,0.000708,-0.008752,0.002615,0.003371,9.046226,0.450395,0.004321,0.892819,0.007929,0.046955,1.859552,0.003565,0.042282,0.331148,0.999900,-0.001738,-0.000264,0.014012,0.008161,0.046968,1.852993
1790768009.026875,-0.000509,0.000697,-0.008735,0.002993,-0.002509,9.043861,0.450395,0.004321,0.892819,0.007929,0.046955,1.859552,0.003565,0.042282,0.331148,0.999900,-0.001738,-0.000264,0.014012,0.008161,0.046968,1.852993
1790768009.031516,-0.001041,0.000664,-0.008832,0.017314,-0.006138,9.053887,0.450564,0.004221,0.892734,0.008039,0.048324,1.869712,0.003384,0.043131,0.307045,0.999900,-0.001738,-0.000264,0.014012,0.008161,0.046968,1.852993
1790768009.035168,-0.001669,0.000699,-0.009946,0.002435,-0.012381,9.068449,0.450564,0.004221,0.892734,0.008039,0.048324,1.869712,0.003384,0.043131,0.307045,0.999900,-0.001738,-0.000264,0.014012,0.008161,0.046968,1.852993
1790768009.039510,-0.001636,0.000497,-0.010214,-0.006720,-0.009597,9.070976,0.450434,0.004533,0.892798,0.008039,0.048324,1.869712,0.003384,0.043131,0.307045,0.999902,-0.001749,-0.000262,0.013923,0.008227,0.047825,1.859134
1790768009.042969,-0.001768,0.000198,-0.008813,-0.008345,0.000270,9.084665,0.450434,0.004533,0.892798,0.008039,0.048324,1.869712,0.003384,0.043131,0.307045,0.999902,-0.001749,-0.000262,0.013923,0.008227,0.047825,1.859134
1790768009.047001,-0.001362,0.001111,-0.009105,0.002133,0.009673,9.075177,0.450434,0.004533,0.892798,0.008039,0.048324,1.869712,0.003384,0.043131,0.307045,0.999902,-0.001749,-0.000262,0.013923,0.008227,0.047825,1.859134
1790768009.052306,-0.001376,0.000798,-0.009724,-0.005807,-0.003905,9.082452,0.450234,0.004531,0.892899,0.008039,0.048324,1.869712,0.003384,0.043131,0.307045,0.999902,-0.001749,-0.000262,0.013923,0.008227,0.047825,1.859134
1790768009.055000,0.000804,-0.000521,-0.008828,0.007174,0.001309,9.092457,0.450234,0.004531,0.892899,0.008039,0.048324,1.869712,0.003384,0.043131,0.307045,0.999902,-0.001749,-0.000262,0.013923,0.008227,0.047825,1.859134
1790768009.059227,-0.000817,-0.000450,-0.009556,-0.000578,-0.002302,9.102549,0.450311,0.005012,0.892858,0.008039,0.048324,1.869712,0.003384,0.043131,0.307045,0.999902,-0.001749,-0.000262,0.013923,0.008227,0.047825,1.859134
1790768009.062961,0.000167,0.000893,-0.007518,0.011254,0.001214,9.080970,0.450311,0.005012,0.892858,0.008144,0.049719,1.879118,0.003205,0.043990,0.283890,0.999903,-0.001757,-0.000259,0.013833,0.008291,0.048695,1.864984
1790768009.066921,0.000081,0.001110,-0.009713,-0.008830,-0.005043,9.090474,0.450311,0.005012,0.892858,0.008144,0.049719,1.879118,0.003205,0.043990,0.283890,0.999903,-0.001757,-0.000259,0.013833,0.008291,0.048695,1.864984
1790768009.071174,0.000205,0.000375,-0.008709,-0.002265,-0.002365,9.104686,0.450619,0.004519,0.892705,0.008144,0.049719,1.879118,0.003205,0.043990,0.283890,0.999903,-0.001757,-0.000259,0.013833,0.008291,0.048695,1.864984
1790768009.075194,0.001484,0.001651,-0.009550,-0.001533,-0.010430,9.098053,0.450619,0.004519,0.892705,0.008144,0.049719,1.879118,0.003205,0.043990,0.283890,0.999903,-0.001757,-0.000259,0.013833,0.008291,0.048695,1.864984
1790768009.079352,-0.000579,0.000895,-0.008838,0.001231,-0.016572,9.107936,0.450677,0.004699,0.892675,0.008144,0.049719,1.879118,0.003205,0.043990,0.283890,0.999904,-0.001763,-0.000255,0.013743,0.008353,0.049576,1.870549
1790768009.082791,0.000195,-0.000347,-0.006492,-0.014028,-0.007187,9.099885,0.450677,0.004699,0.892675,0.008144,0.049719,1.879118,0.003205,0.043990,0.283890,0.999904,-0.001763,-0.000255,0.013743,0.008353,0.049576,1.870549
1790768009.086871,0.001754,0.001773,-0.010734,-0.002393,-0.009495,9.107028,0.450677,0.004699,0.892675,0.008144,0.049719,1.879118,0.003205,0.043990,0.283890,0.999904,-0.001763,-0.000255,0.013743,0.008353,0.049576,1.870549
1790768009.091067,-0.000496,0.001779,-0.008800,0.001275,-0.009611,9.120018,0.450165,0.004647,0.892933,0.008144,0.049719,1.879118,0.003205,0.043990,0.283890,0.999904,-0.001763,-0.000255,0.013743,0.008353,0.049576,1.870549
1790768009.098235,-0.001246,0.001859,-0.008714,-0.000945,-0.005877,9.099864,0.450165,0.004647,0.892933,0.008144,0.049719,1.879118,0.003205,0.043990,0.283890,0.999904,-0.001763,-0.000255,0.013743,0.008353,0.049576,1.870549
1790768009.100456,-0.000925,0.000341,-0.008735,-0.000697,0.000298,9.110328,0.450600,0.004481,0.892714,0.008255,0.051323,1.888835,0.003008,0.044962,0.258900,0.999905,-0.001768,-0.000251,0.013652,0.008412,0.050468,1.875837
1790768009.103092,-0.001479,0.001758,-0.008344,0.002851,-0.000099,9.125280,0.450600,0.004481,0.892714,0.008255,0.051323,1.888835,0.003008,0.044962,0.258900,0.999905,-0.001768,-0.000251,0.013652,0.008412,0.050468,1.875837
1790768009.108454,-0.000303,0.000377,-0.008722,-0.002816,-0.011624,9.130157,0.450600,0.004481,0.892714,0.008255,0.051323,1.888835,0.003008,0.044962,0.258900,0.999905,-0.001768,-0.000251,0.013652,0.008412,0.050468,1.875837
1790768009.111437,-0.000836,-0.000338,-0.009027,-0.007649,-0.007282,9.136910,0.450330,0.004837,0.892849,0.008255,0.051323,1.888835,0.003008,0.044962,0.258900,0.999905,-0.001768,-0.000251,0.013652,0.008412,0.050468,1.875837
1790768009.115635,-0.000574,0.000008,-0.009455,-0.003126,-0.016138,9.136090,0.450330,0.004837,0.892849,0.008255,0.051323,1.888835,0.003008,0.044962,0.258900,0.999905,-0.001768,-0.000251,0.013652,0.008412,0.050468,1.875837
1790768009.119780,-0.000569,0.002494,-0.009778,-0.001015,-0.004553,9.130092,0.450701,0.004441,0.892664,0.008255,0.051323,1.888835,0.003008,0.044962,0.258900,0.999906,-0.001773,-0.000248,0.013561,0.008469,0.051372,1.880852
1790768009.123749,-0.001287,0.001695,-0.008634,0.005438,-0.005793,9.128460,0.450701,0.004441,0.892664,0.008255,0.051323,1.888835,0.003008,0.044962,0.258900,0.999906,-0.001773,-0.000248,0.013561,0.008469,0.051372,1.880852
1790768009.127195,0.000001,0.000205,-0.008130,0.003686,0.000157,9.150591,0.450701,0.004441,0.892664,0.008255,0.051323,1.888835,0.003008,0.044962,0.258900,0.999906,-0.001773,-0.000248,0.013561,0.008469,0.051372,1.880852
1790768009.131306,0.000137,0.001250,-0.009888,-0.002197,0.005644,9.124472,0.450346,0.004658,0.892842,0.008348,0.052777,1.896733,0.002837,0.045830,0.237524,0.999906,-0.001773,-0.000248,0.013561,0.008469,0.051372,1.880852
1790768009.135883,0.000482,-0.000293,-0.008488,-0.006618,-0.000386,9.135162,0.450346,0.004658,0.892842,0.008348,0.052777,1.896733,0.002837,0.045830,0.237524,0.999906,-0.001773,-0.000248,0.013561,0.008469,0.051372,1.880852
1790768009.139238,0.002206,-0.000445,-0.009006,0.001952,0.000635,9.149450,0.450565,0.005108,0.892729,0.008348,0.052777,1.896733,0.002837,0.045830,0.237524,0.999908,-0.001774,-0.000245,0.013470,0.008524,0.052288,1.885603
1790768009.143276,0.000002,0.000649,-0.009957,0.006409,0.004982,9.161708,0.450565,0.005108,0.892729,0.008348,0.052777,1.896733,0.002837,0.045830,0.237524,0.999908,-0.001774,-0.000245,0.013470,0.008524,0.052288,1.885603
1790768009.147233,-0.000682,0.001091,-0.008961,-0.001760,-0.005544,9.172505,0.450565,0.005108,0.892729,0.008348,0.052777,1.896733,0.002837,0.045830,0.237524,0.999908,-0.001774,-0.000245,0.013470,0.008524,0.052288,1.885603
1790768009.151146,0.000922,0.000012,-0.009926,-0.011092,-0.010222,9.160396,0.450453,0.004957,0.892786,0.008348,0.052777,1.896733,0.002837,0.045830,0.237524,0.999908,-0.001774,-0.000245,0.013470,0.008524,0.052288,1.885603
1790768009.155208,-0.000729,-0.000366,-0.009172,-0.001918,-0.008039,9.170317,0.450453,0.004957,0.892786,0.008348,0.052777,1.896733,0.002837,0.045830,0.237524,0.999908,-0.001774,-0.000245,0.013470,0.008524,0.052288,1.885603
1790768009.159289,0.001131,-0.000134,-0.010024,0.003301,-0.002144,9.171983,0.450567,0.004817,0.892730,0.008348,0.052777,1.896733,0.002837,0.045830,0.237524,0.999909,-0.001772,-0.000241,0.013379,0.008577,0.053216,1.890097
1790768009.162969,-0.001698,0.001059,-0.007767,-0.000903,-0.006376,9.178685,0.450567,0.004817,0.892730,0.008436,0.054260,1.903964,0.002669,0.046700,0.217135,0.999909,-0.001772,-0.000241,0.013379,0.008577,0.053216,1.890097
1790768009.166821,-0.000961,-0.000779,-0.010441,-0.001069,-0.004744,9.169033,0.450567,0.004817,0.892730,0.008436,0.054260,1.903964,0.002669,0.046700,0.217135,0.999909,-0.001772,-0.000241,0.013379,0.008577,0.053216,1.890097
1790768009.171255,0.000831,-0.000144,-0.007760,-0.000842,-0.015860,9.188766,0.450532,0.004670,0.892748,0.008436,0.054260,1.903964,0.002669,0.046700,0.217135,0.999909,-0.001772,-0.000241,0.013379,0.008577,0.053216,1.890097
1790768009.174993,0.000263,0.001728,-0.009650,-0.004858,-0.000571,9.194923,0.450532,0.004670,0.892748,0.008436,0.054260,1.903964,0.002669,0.046700,0.217135,0.999909,-0.001772,-0.000241,0.013379,0.008577,0.053216,1.890097
1790768009.179067,-0.000408,0.000735,-0.010391,0.005212,-0.008632,9.194197,0.450616,0.004964,0.892704,0.008436,0.054260,1.903964,0.002669,0.046700,0.217135,0.999910,-0.001768,-0.000236,0.013288,0.008627,0.054156,1.894340
1790768009.183618,0.000014,-0.000229,-0.010198,-0.002686,-0.006721,9.199024,0.450616,0.004964,0.892704,0.008436,0.054260,1.903964,0.002669,0.046700,0.217135,0.999910,-0.001768,-0.000236,0.013288,0.008627,0.054156,1.894340
