t,gx,gy,gz,ax,ay,az,mx,my,mz,px,py,pz,vx,vy,vz,tqw,tqx,tqy,tqz,tpx,tpy,tpz
1790767399.386796,-0.000080,-0.000160,0.000545,0.015437,0.002530,9.798611,-0.019768,0.449784,-0.892918,0.000000,0.000000,0.000000,0.000000,-0.000000,0.000000,1.000000,0.000000,0.000000,-0.000000,-0.000000,0.000000,-0.013000
1790767399.388810,-0.000079,-0.000599,0.000292,-0.004096,-0.008290,9.803497,-0.020146,0.449798,-0.892903,0.000000,0.000000,0.000000,0.000000,-0.000000,0.000000,1.000000,0.000000,0.000000,-0.000000,-0.000000,0.000000,-0.013000
1790767399.393218,0.000362,0.001052,0.000817,-0.001126,0.012693,9.789574,-0.020146,0.449798,-0.892903,0.000000,0.000000,0.000000,0.000000,-0.000000,0.000000,1.000000,0.000000,0.000000,-0.000000,-0.000000,0.000000,-0.013000
1790767399.396444,0.000559,0.000783,-0.001023,0.001874,-0.004462,9.804784,-0.020146,0.449798,-0.892903,0.000000,0.000000,0.000000,0.000000,-0.000000,0.000000,1.000000,0.000000,0.000000,-0.000000,-0.000000,0.000000,-0.013000
1790767399.400521,0.000840,0.001090,0.000089,0.002099,-0.014660,9.813987,-0.019957,0.449467,-0.893074,0.000000,0.000000,0.000000,0.000000,-0.000000,0.000000,1.000000,0.000000,0.000000,-0.000000,-0.000000,0.000000,-0.013000
1790767399.404975,0.000534,0.000231,0.000148,0.002613,0.016621,9.802112,-0.019957,0.449467,-0.893074,0.000000,0.000000,0.000000,0.000000,-0.000000,0.000000,1.000000,0.000000,0.000000,-0.000000,-0.000000,0.000000,-0.013000
1790767399.409880,-0.000874,0.000838,0.000825,0.007660,-0.008713,9.795591,-0.019881,0.449644,-0.892987,0.000000,0.000000,0.000000,0.000000,-0.000000,0.000000,1.000000,0.000000,0.000000,-0.000000,-0.000000,0.000000,-0.013000
1790767399.413480,-0.000640,0.000939,0.000023,-0.002104,-0.000227,9.796036,-0.019881,0.449644,-0.892987,0.000000,0.000000,0.000000,-0.000000,0.000000,0.000000,1.000000,0.000000,0.000000,-0.000000,-0.000000,0.000000,-0.013000
1790767399.416755,0.000633,-0.000645,-0.000654,0.012606,-0.004700,9.812775,-0.019881,0.449644,-0.892987,0.000000,0.000000,0.000000,-0.000000,0.000000,0.000000,1.000000,0.000000,0.000000,-0.000000,-0.000000,0.000000,-0.013000
1790767399.421047,-0.000327,0.000378,0.001067,-0.001636,-0.001865,9.803511,-0.019865,0.449620,-0.892999,0.000000,0.000000,0.000000,-0.000000,0.000000,0.000000,1.000000,0.000000,0.000000,-0.000000,-0.000000,0.000000,-0.013000
1790767399.424936,-0.001566,0.000835,-0.000511,-0.007929,-0.005200,9.812686,-0.019865,0.449620,-0.892999,0.000000,0.000000,0.000000,-0.000000,0.000000,0.000000,1.000000,0.000000,0.000000,-0.000000,-0.000000,0.000000,-0.013000
1790767399.428411,0.001000,-0.000996,0.000681,0.005841,0.004995,9.791696,-0.020328,0.449541,-0.893028,0.000000,0.000000,0.000000,-0.000000,0.000000,0.000000,1.000000,0.000000,0.000000,-0.000000,-0.000000,0.000000,-0.013000
1790767399.432287,-0.001473,-0.000167,0.000296,-0.005590,0.002757,9.798847,-0.020328,0.449541,-0.893028,0.000000,0.000000,0.000000,-0.000000,0.000000,0.000000,1.000000,0.000000,0.000000,-0.000000,-0.000000,0.000000,-0.013000
1790767399.436983,-0.000631,0.000474,-0.001023,0.002070,0.004861,9.812617,-0.020328,0.449541,-0.893028,0.000000,0.000000,0.000000,-0.000000,0.000000,0.000000,1.000000,0.000000,0.000000,-0.000000,-0.000000,0.000000,-0.013000
1790767399.441455,-0.000152,0.001121,0.000236,-0.002817,-0.000851,9.799346,-0.020240,0.449600,-0.893001,0.000000,0.000000,0.000000,-0.000000,0.000000,0.000000,1.000000,0.000000,0.000000,-0.000000,-0.000000,0.000000,-0.013000
1790767399.444959,-0.000177,-0.000241,-0.000695,0.002366,0.009832,9.786614,-0.020240,0.449600,-0.893001,0.000000,0.000000,0.000000,0.000000,-0.000000,0.000000,1.000000,0.000000,0.000000,-0.000000,-0.000000,0.000000,-0.013000
1790767399.448898,-0.000500,0.000612,0.000497,-0.001988,0.007892,9.813725,-0.020312,0.449674,-0.892962,0.000000,0.000000,0.000000,0.000000,-0.000000,0.000000,1.000000,0.000000,0.000000,-0.000000,-0.000000,0.000000,-0.013000
1790767399.452470,0.000630,-0.000470,0.000788,-0.006829,-0.005001,9.922865,-0.020312,0.449674,-0.892962,0.000000,0.000000,0.000000,0.000000,-0.000000,0.000000,1.000000,0.000000,0.000000,-0.000000,-0.000000,0.000000,-0.013000
1790767399.457615,0.000893,0.001310,0.001164,0.004403,-0.002974,10.125393,-0.020312,0.449674,-0.892962,0.000000,0.000000,0.000000,0.000000,-0.000000,0.000000,1.000000,0.000000,0.000000,-0.000000,-0.000000,0.000000,-0.012991
1790767399.460716,0.000838,-0.000460,0.000957,0.001380,0.002342,10.285516,-0.019917,0.449624,-0.892996,0.000000,0.000000,0.000000,0.000000,-0.000000,0.000000,1.000000,0.000000,0.000000,-0.000000,-0.000000,0.000000,-0.012991
1790767399.465023,0.000465,-0.001589,-0.001044,0.004649,-0.003880,10.402543,-0.019917,0.449624,-0.892996,0.000000,0.000000,0.000000,0.000000,-0.000000,0.000000,1.000000,0.000000,0.000000,-0.000000,-0.000000,0.000000,-0.012991
1790767399.468726,-0.002115,0.000177,0.001169,0.004767,-0.007466,10.482074,-0.020408,0.449849,-0.892871,0.000000,0.000000,0.000000,0.000000,-0.000000,0.000000,1.000000,0.000000,0.000000,-0.000000,-0.000000,0.000000,-0.012991
1790767399.472839,0.000479,-0.000972,-0.001285,0.002166,-0.004647,10.550084,-0.020408,0.449849,-0.892871,0.000000,0.000000,0.000000,0.000000,-0.000000,0.000000,1.000000,0.000000,0.000000,-0.000000,-0.000000,0.000000,-0.012991
1790767399.477289,0.000282,-0.000166,-0.001306,-0.009583,-0.001150,10.596815,-0.020408,0.449849,-0.892871,-0.000000,-0.000000,0.000193,-0.000000,-0.000000,0.015120,1.000000,-0.000000,0.000000,-0.000000,-0.000000,-0.000000,-0.012807
1790767399.480537,0.000402,-0.000413,0.000102,-0.006836,0.004401,10.641893,-0.020095,0.449665,-0.892971,-0.000000,-0.000000,0.000193,-0.000000,-0.000000,0.015120,1.000000,-0.000000,0.000000,-0.000000,-0.000000,-0.000000,-0.012807
1790767399.484440,-0.000342,0.001440,-0.000943,-0.004329,-0.004343,10.659951,-0.020095,0.449665,-0.892971,-0.000000,-0.000000,0.000193,-0.000000,-0.000000,0.015120,1.000000,-0.000000,0.000000,-0.000000,-0.000000,-0.000000,-0.012807
1790767399.488339,0.000740,0.001008,-0.000144,0.006133,-0.007702,10.696584,-0.019984,0.449653,-0.892980,-0.000000,-0.000000,0.000193,-0.000000,-0.000000,0.015120,1.000000,-0.000000,0.000000,-0.000000,-0.000000,-0.000000,-0.012807
1790767399.493382,-0.001188,0.001089,0.000571,-0.002059,0.000394,10.704830,-0.019984,0.449653,-0.892980,-0.000000,-0.000000,0.000193,-0.000000,-0.000000,0.015120,1.000000,-0.000000,0.000000,-0.000000,-0.000000,-0.000000,-0.012807
1790767399.496786,0.000746,0.000880,0.001491,-0.005317,0.000047,10.722171,-0.019984,0.449653,-0.892980,-0.000000,-0.000000,0.000193,-0.000000,-0.000000,0.015120,1.000000,-0.000001,0.000003,-0.000000,-0.000001,-0.000000,-0.012297
1790767399.500641,-0.000401,0.000813,0.000024,0.008589,-0.005469,10.731682,-0.020157,0.449828,-0.892887,-0.000000,-0.000000,0.000193,-0.000000,-0.000000,0.015120,1.000000,-0.000001,0.000003,-0.000000,-0.000001,-0.000000,-0.012297
1790767399.504759,0.000631,-0.000034,-0.001293,0.003657,-0.002564,10.723446,-0.020157,0.449828,-0.892887,-0.000000,-0.000000,0.000193,-0.000000,-0.000000,0.015120,1.000000,-0.000001,0.000003,-0.000000,-0.000001,-0.000000,-0.012297
1790767399.509582,0.000104,-0.001366,-0.000004,0.006586,0.000415,10.744802,-0.020299,0.449785,-0.892906,0.000000,-0.000000,0.001186,0.000001,0.000000,0.044002,1.000000,-0.000001,0.000003,-0.000000,-0.000001,-0.000000,-0.012297
1790767399.512955,0.000869,0.000263,0.001254,-0.006060,0.009883,10.763684,-0.020299,0.449785,-0.892906,0.000000,-0.000000,0.001186,0.000001,0.000000,0.044002,1.000000,-0.000001,0.000003,-0.000000,-0.000001,-0.000000,-0.012297
1790767399.516386,-0.000867,-0.000962,0.000797,-0.000341,-0.003151,10.779071,-0.020299,0.449785,-0.892906,0.000000,-0.000000,0.001186,0.000001,0.000000,0.044002,1.000000,-0.000002,0.000005,-0.000001,-0.000002,-0.000001,-0.011416
1790767399.521019,-0.000958,-0.000262,0.000737,-0.005421,0.001269,10.758474,-0.020287,0.449492,-0.893054,0.000000,-0.000000,0.001186,0.000001,0.000000,0.044002,1.000000,-0.000002,0.000005,-0.000001,-0.000002,-0.000001,-0.011416
1790767399.525731,0.000046,0.000002,0.000561,-0.002700,0.000689,10.775247,-0.020287,0.449492,-0.893054,0.000000,-0.000000,0.001186,0.000001,0.000000,0.044002,1.000000,-0.000002,0.000005,-0.000001,-0.000002,-0.000001,-0.011416
1790767399.528436,-0.000775,-0.001192,0.000232,-0.008751,0.002358,10.775794,-0.019873,0.449701,-0.892958,0.000000,-0.000000,0.001186,0.000001,0.000000,0.044002,1.000000,-0.000002,0.000005,-0.000001,-0.000002,-0.000001,-0.011416
1790767399.532169,-0.000210,0.000868,-0.000618,0.006329,0.002566,10.785352,-0.019873,0.449701,-0.892958,0.000000,-0.000000,0.001186,0.000001,0.000000,0.044002,1.000000,-0.000002,0.000005,-0.000001,-0.000002,-0.000001,-0.011416
1790767399.536883,-0.000873,0.001736,-0.000364,0.003170,-0.000628,10.785904,-0.019873,0.449701,-0.892958,0.000000,-0.000000,0.001186,0.000001,0.000000,0.044002,1.000000,-0.000003,0.000007,-0.000001,-0.000003,-0.000002,-0.010148
1790767399.540982,0.000699,0.001617,-0.001189,-0.004375,0.000537,10.788491,-0.020453,0.449747,-0.892922,0.000000,-0.000000,0.001186,0.000001,0.000000,0.044002,1.000000,-0.000003,0.000007,-0.000001,-0.000003,-0.000002,-0.010148
1790767399.544368,-0.000757,0.000947,0.000322,0.006999,-0.011853,10.796506,-0.020453,0.449747,-0.892922,0.000000,0.000000,0.003470,0.000005,0.000002,0.079266,1.000000,-0.000003,0.000007,-0.000001,-0.000003,-0.000002,-0.010148
1790767399.548502,-0.002806,-0.000682,0.000314,-0.007953,0.002389,10.797886,-0.020238,0.449240,-0.893182,0.000000,0.000000,0.003470,0.000005,0.000002,0.079266,1.000000,-0.000003,0.000007,-0.000001,-0.000003,-0.000002,-0.010148
1790767399.552610,0.000292,-0.000378,0.000605,-0.005874,-0.001428,10.808274,-0.020238,0.449240,-0.893182,0.000000,0.000000,0.003470,0.000005,0.000002,0.079266,1.000000,-0.000003,0.000007,-0.000001,-0.000003,-0.000002,-0.010148
1790767399.556683,-0.000298,-0.000113,0.000948,0.001490,0.000558,10.814319,-0.020238,0.449240,-0.893182,0.000000,0.000000,0.003470,0.000005,0.000002,0.079266,1.000000,-0.000004,0.000009,-0.000001,-0.000004,-0.000002,-0.008482
1790767399.560635,-0.000334,-0.000963,0.000843,-0.014786,0.003212,10.817301,-0.020287,0.449669,-0.892965,0.000000,0.000000,0.003470,0.000005,0.000002,0.079266,1.000000,-0.000004,0.000009,-0.000001,-0.000004,-0.000002,-0.008482
1790767399.564291,0.000063,-0.000598,0.000658,0.002441,-0.001831,10.815708,-0.020287,0.449669,-0.892965,0.000000,0.000000,0.003470,0.000005,0.000002,0.079266,1.000000,-0.000004,0.000009,-0.000001,-0.000004,-0.000002,-0.008482
1790767399.568779,0.000571,0.001675,-0.000214,-0.000936,0.009847,10.838329,-0.020156,0.449575,-0.893015,0.000000,0.000000,0.003470,0.000005,0.000002,0.079266,1.000000,-0.000004,0.000009,-0.000001,-0.000004,-0.000002,-0.008482
1790767399.572985,-0.000679,0.001156,-0.000785,0.008138,-0.004297,10.839435,-0.020156,0.449575,-0.893015,0.000000,0.000000,0.003470,0.000005,0.000002,0.079266,1.000000,-0.000004,0.000009,-0.000001,-0.000004,-0.000002,-0.008482
1790767399.577186,-0.001480,0.000537,0.002122,-0.004069,-0.000457,10.833655,-0.020156,0.449575,-0.893015,0.000000,0.000000,0.006592,0.000011,0.000005,0.111946,1.000000,-0.000002,0.000011,-0.000002,-0.000005,-0.000001,-0.006409
1790767399.580695,-0.002017,0.000329,-0.000209,-0.008718,0.004966,10.851586,-0.020103,0.449680,-0.892963,0.000000,0.000000,0.006592,0.000011,0.000005,0.111946,1.000000,-0.000002,0.000011,-0.000002,-0.000005,-0.000001,-0.006409
1790767399.584747,0.000264,0.000456,0.001021,-0.010331,-0.004561,10.849238,-0.020103,0.449680,-0.892963,0.000000,0.000000,0.006592,0.000011,0.000005,0.111946,1.000000,-0.000002,0.000011,-0.000002,-0.000005,-0.000001,-0.006409
1790767399.588617,0.002302,0.001741,-0.000954,-0.001293,-0.004167,10.858845,-0.020219,0.449478,-0.893062,0.000000,0.000000,0.006592,0.000011,0.000005,0.111946,1.000000,-0.000002,0.000011,-0.000002,-0.000005,-0.000001,-0.006409
1790767399.593115,-0.000140,-0.001690,-0.000029,0.003313,0.003551,10.858734,-0.020219,0.449478,-0.893062,0.000000,0.000000,0.006592,0.000011,0.000005,0.111946,1.000000,-0.000002,0.000011,-0.000002,-0.000005,-0.000001,-0.006409
1790767399.596875,-0.000151,0.000963,-0.000867,0.000815,-0.002444,10.847449,-0.020219,0.449478,-0.893062,0.000000,0.000000,0.006592,0.000011,0.000005,0.111946,1.000000,0.000001,0.000013,-0.000003,-0.000006,0.000001,-0.003918
1790767399.600223,0.000034,0.000923,0.000696,-0.001577,-0.012611,10.865849,-0.019808,0.449467,-0.893077,0.000000,0.000000,0.006592,0.000011,0.000005,0.111946,1.000000,0.000001,0.000013,-0.000003,-0.000006,0.000001,-0.003918
1790767399.604544,0.000346,0.000710,0.000141,0.007058,0.004310,10.858440,-0.019808,0.449467,-0.893077,0.000000,0.000000,0.006592,0.000011,0.000005,0.111946,1.000000,0.000001,0.000013,-0.000003,-0.000006,0.000001,-0.003918
1790767399.608837,0.002228,-0.001142,0.000499,-0.015270,-0.004156,10.870043,-0.020578,0.449782,-0.892901,0.000001,0.000000,0.010779,0.000021,0.000005,0.145730,1.000000,0.000001,0.000013,-0.000003,-0.000006,0.000001,-0.003918
1790767399.612644,0.000452,0.000806,-0.000672,0.001091,0.003186,10.873184,-0.020578,0.449782,-0.892901,0.000001,0.000000,0.010779,0.000021,0.000005,0.145730,1.000000,0.000001,0.000013,-0.000003,-0.000006,0.000001,-0.003918
1790767399.616529,0.001121,0.000111,0.000743,-0.003725,0.013012,10.875552,-0.020578,0.449782,-0.892901,0.000001,0.000000,0.010779,0.000021,0.000005,0.145730,1.000000,0.000005,0.000014,-0.000003,-0.000005,0.000003,-0.001003
1790767399.621589,0.000319,0.000168,-0.000794,0.001709,0.006276,10.892632,-0.020120,0.449559,-0.893024,0.000001,0.000000,0.010779,0.000021,0.000005,0.145730,1.000000,0.000005,0.000014,-0.000003,-0.000005,0.000003,-0.001003
1790767399.627513,0.000229,-0.000613,0.000406,0.000979,-0.002116,10.880695,-0.020120,0.449559,-0.893024,0.000001,0.000000,0.010779,0.000021,0.000005,0.145730,1.000000,0.000005,0.000014,-0.000003,-0.000005,0.000003,-0.001003
1790767399.628776,0.000243,-0.000999,-0.000366,-0.010722,0.004357,10.879670,-0.019887,0.449556,-0.893031,0.000001,0.000000,0.010779,0.000021,0.000005,0.145730,1.000000,0.000005,0.000014,-0.000003,-0.000005,0.000003,-0.001003
1790767399.632699,0.000269,0.000025,-0.000549,0.002147,0.005976,10.882021,-0.019887,0.449556,-0.893031,0.000001,0.000000,0.010779,0.000021,0.000005,0.145730,1.000000,0.000005,0.000014,-0.000003,-0.000005,0.000003,-0.001003
1790767399.637032,0.000422,-0.000300,-0.001513,-0.007803,-0.000005,10.899900,-0.019887,0.449556,-0.893031,0.000001,0.000000,0.010779,0.000021,0.000005,0.145730,1.000000,0.000006,0.000013,-0.000004,-0.000004,0.000003,0.002343
1790767399.641530,0.001111,-0.001211,0.000376,0.003646,0.015807,10.902264,-0.020163,0.449678,-0.892963,0.000002,0.000000,0.016065,0.000030,0.000001,0.180398,1.000000,0.000006,0.000013,-0.000004,-0.000004,0.000003,0.002343
1790767399.644529,-0.000341,-0.001713,-0.000337,0.000207,-0.001106,10.896899,-0.020163,0.449678,-0.892963,0.000002,0.000000,0.016065,0.000030,0.000001,0.180398,1.000000,0.000006,0.000013,-0.000004,-0.000004,0.000003,0.002343
1790767399.649062,-0.000922,0.000820,-0.000191,-0.005743,-0.003182,10.897643,-0.020130,0.449454,-0.893077,0.000002,0.000000,0.016065,0.000030,0.000001,0.180398,1.000000,0.000006,0.000013,-0.000004,-0.000004,0.000003,0.002343
1790767399.652512,-0.000093,0.001658,0.001229,0.013317,-0.006172,10.916622,-0.020130,0.449454,-0.893077,0.000002,0.000000,0.016065,0.000030,0.000001,0.180398,1.000000,0.000006,0.000013,-0.000004,-0.000004,0.000003,0.002343
1790767399.656852,-0.001169,0.000332,-0.000237,-0.006539,0.007732,10.901673,-0.020130,0.449454,-0.893077,0.000002,0.000000,0.016065,0.000030,0.000001,0.180398,1.000000,0.000006,0.000012,-0.000004,-0.000004,0.000003,0.006128
1790767399.660875,0.000065,-0.000528,0.000232,0.000597,0.007398,10.913550,-0.020365,0.449502,-0.893047,0.000002,0.000000,0.016065,0.000030,0.000001,0.180398,1.000000,0.000006,0.000012,-0.000004,-0.000004,0.000003,0.006128
1790767399.664563,-0.000601,-0.000663,-0.001204,-0.009486,0.004019,10.922144,-0.020365,0.449502,-0.893047,0.000002,0.000000,0.016065,0.000030,0.000001,0.180398,1.000000,0.000006,0.000012,-0.000004,-0.000004,0.000003,0.006128
1790767399.668710,-0.001748,-0.000891,0.002623,0.009668,0.002538,10.929052,-0.020216,0.449457,-0.893073,0.000002,0.000000,0.016065,0.000030,0.000001,0.180398,1.000000,0.000006,0.000012,-0.000004,-0.000004,0.000003,0.006128
1790767399.673097,0.000533,-0.001331,-0.001407,0.006019,-0.002585,10.921026,-0.020216,0.449457,-0.893073,0.000002,0.000000,0.016065,0.000030,0.000001,0.180398,1.000000,0.000006,0.000012,-0.000004,-0.000004,0.000003,0.006128
1790767399.676709,0.001825,0.000227,0.000600,-0.002303,0.001182,10.935078,-0.020216,0.449457,-0.893073,0.000003,0.000000,0.023357,0.000039,-0.000004,0.220460,1.000000,0.000007,0.000012,-0.000005,-0.000003,0.000004,0.010357
1790767399.680679,-0.000302,-0.001448,0.000267,0.006628,-0.009515,10.939549,-0.020070,0.449956,-0.892825,0.000003,0.000000,0.023357,0.000039,-0.000004,0.220460,1.000000,0.000007,0.000012,-0.000005,-0.000003,0.000004,0.010357
1790767399.684799,0.000366,0.000686,0.000555,0.001371,0.002739,10.934599,-0.020070,0.449956,-0.892825,0.000003,0.000000,0.023357,0.000039,-0.000004,0.220460,1.000000,0.000007,0.000012,-0.000005,-0.000003,0.000004,0.010357
1790767399.688676,0.000453,0.001933,0.000083,-0.009110,0.006599,10.962544,-0.020452,0.449613,-0.892989,0.000003,0.000000,0.023357,0.000039,-0.000004,0.220460,1.000000,0.000007,0.000012,-0.000005,-0.000003,0.000004,0.010357
1790767399.693108,0.000494,0.001082,-0.000230,0.000860,0.000618,10.964071,-0.020452,0.449613,-0.892989,0.000003,0.000000,0.023357,0.000039,-0.000004,0.220460,1.000000,0.000007,0.000012,-0.000005,-0.000003,0.000004,0.010357
1790767399.696560,0.002737,0.001463,-0.000130,-0.001311,-0.004636,10.960418,-0.020452,0.449613,-0.892989,0.000003,0.000000,0.023357,0.000039,-0.000004,0.220460,1.000000,0.000009,0.000014,-0.000005,-0.000003,0.000004,0.015041
1790767399.700321,-0.000746,-0.000376,0.000931,-0.008210,-0.002248,10.965405,-0.020233,0.449630,-0.892986,0.000003,0.000000,0.023357,0.000039,-0.000004,0.220460,1.000000,0.000009,0.000014,-0.000005,-0.000003,0.000004,0.015041
1790767399.704382,-0.000947,-0.000526,0.000481,0.004458,0.004165,10.955519,-0.020233,0.449630,-0.892986,0.000003,0.000000,0.023357,0.000039,-0.000004,0.220460,1.000000,0.000009,0.000014,-0.000005,-0.000003,0.000004,0.015041
1790767399.709068,0.000766,0.001306,0.000102,0.005558,0.002708,10.957505,-0.020241,0.449558,-0.893022,0.000004,0.000000,0.031074,0.000048,-0.000010,0.257399,1.000000,0.000009,0.000014,-0.000005,-0.000003,0.000004,0.015041
1790767399.712661,-0.000205,-0.000028,0.000808,-0.006414,0.003672,10.978738,-0.020241,0.449558,-0.893022,0.000004,0.000000,0.031074,0.000048,-0.000010,0.257399,1.000000,0.000009,0.000014,-0.000005,-0.000003,0.000004,0.015041
1790767399.716716,-0.000708,0.000988,-0.000492,0.007065,-0.006319,10.981260,-0.020241,0.449558,-0.893022,0.000004,0.000000,0.031074,0.000048,-0.000010,0.257399,1.000000,0.000009,0.000013,-0.000005,-0.000002,0.000004,0.020189
1790767399.720895,0.001371,-0.000664,0.000335,-0.000035,-0.004682,10.984128,-0.020418,0.449796,-0.892898,0.000004,0.000000,0.031074,0.000048,-0.000010,0.257399,1.000000,0.000009,0.000013,-0.000005,-0.000002,0.000004,0.020189
1790767399.725130,-0.001175,-0.000615,0.000467,0.001467,-0.005086,10.983267,-0.020418,0.449796,-0.892898,0.000004,0.000000,0.031074,0.000048,-0.000010,0.257399,1.000000,0.000009,0.000013,-0.000005,-0.000002,0.000004,0.020189
1790767399.729229,0.000569,-0.001017,-0.000198,-0.008040,-0.013546,10.992755,-0.020455,0.449604,-0.892994,0.000004,0.000000,0.031074,0.000048,-0.000010,0.257399,1.000000,0.000009,0.000013,-0.000005,-0.000002,0.000004,0.020189
1790767399.732742,-0.000805,0.000131,0.000454,-0.000631,-0.016764,10.989091,-0.020455,0.449604,-0.892994,0.000004,0.000000,0.031074,0.000048,-0.000010,0.257399,1.000000,0.000009,0.000013,-0.000005,-0.000002,0.000004,0.020189
1790767399.737271,0.000290,0.000292,0.000183,-0.001301,-0.005571,10.976614,-0.020455,0.449604,-0.892994,0.000004,0.000000,0.031074,0.000048,-0.000010,0.257399,1.000000,0.000009,0.000012,-0.000006,-0.000000,0.000004,0.025810
1790767399.740647,0.001152,-0.000128,-0.000292,0.009408,-0.006538,10.985583,-0.020119,0.449107,-0.893251,0.000006,-0.000000,0.039991,0.000057,-0.000016,0.295231,1.000000,0.000009,0.000012,-0.000006,-0.000000,0.000004,0.025810
1790767399.744513,-0.000083,-0.000633,0.000308,-0.007605,0.006535,10.983785,-0.020119,0.449107,-0.893251,0.000006,-0.000000,0.039991,0.000057,-0.000016,0.295231,1.000000,0.000009,0.000012,-0.000006,-0.000000,0.000004,0.025810
1790767399.749293,-0.000950,0.000160,-0.001550,0.004233,-0.000821,10.985743,-0.020101,0.449755,-0.892926,0.000006,-0.000000,0.039991,0.000057,-0.000016,0.295231,1.000000,0.000009,0.000012,-0.000006,-0.000000,0.000004,0.025810
1790767399.752415,-0.000424,-0.000432,0.000426,0.000876,-0.003520,10.999797,-0.020101,0.449755,-0.892926,0.000006,-0.000000,0.039991,0.000057,-0.000016,0.295231,1.000000,0.000009,0.000012,-0.000006,-0.000000,0.000004,0.025810
1790767399.757059,-0.001060,-0.000082,-0.000111,0.002033,0.004667,10.991954,-0.020101,0.449755,-0.892926,0.000006,-0.000000,0.039991,0.000057,-0.000016,0.295231,1.000000,0.000008,0.000011,-0.000007,0.000002,0.000004,0.031905
1790767399.761097,-0.000077,0.000075,0.000151,0.012233,-0.008904,11.005990,-0.020292,0.449508,-0.893046,0.000006,-0.000000,0.039991,0.000057,-0.000016,0.295231,1.000000,0.000008,0.000011,-0.000007,0.000002,0.000004,0.031905
1790767399.764651,-0.000103,-0.000368,-0.000765,0.006798,0.003650,10.994714,-0.020292,0.449508,-0.893046,0.000006,-0.000000,0.039991,0.000057,-0.000016,0.295231,1.000000,0.000008,0.000011,-0.000007,0.000002,0.000004,0.031905
1790767399.768978,0.001325,-0.000088,0.000962,-0.004180,0.002679,10.990953,-0.019893,0.449899,-0.892858,0.000006,-0.000000,0.039991,0.000057,-0.000016,0.295231,1.000000,0.000008,0.000011,-0.000007,0.000002,0.000004,0.031905
1790767399.773717,0.000474,-0.000688,0.001059,0.006549,-0.004638,11.014808,-0.019893,0.449899,-0.892858,0.000008,-0.000001,0.050126,0.000065,-0.000022,0.333478,1.000000,0.000008,0.000011,-0.000007,0.000002,0.000004,0.031905
1790767399.777175,-0.000313,-0.000816,-0.000414,-0.006186,-0.000042,11.002337,-0.019893,0.449899,-0.892858,0.000008,-0.000001,0.050126,0.000065,-0.000022,0.333478,1.000000,0.000009,0.000011,-0.000007,0.000003,0.000003,0.038479
1790767399.780725,-0.000069,0.000010,0.000720,0.004609,0.008358,11.000941,-0.020185,0.449543,-0.893031,0.000008,-0.000001,0.050126,0.000065,-0.000022,0.333478,1.000000,0.000009,0.000011,-0.000007,0.000003,0.000003,0.038479
1790767399.784582,-0.001265,-0.000126,-0.001110,-0.012363,0.004967,11.002932,-0.020185,0.449543,-0.893031,0.000008,-0.000001,0.050126,0.000065,-0.000022,0.333478,1.000000,0.000009,0.000011,-0.000007,0.000003,0.000003,0.038479
1790767399.788630,0.000603,0.001480,0.000024,0.001798,0.006027,11.018577,-0.020130,0.449376,-0.893116,0.000008,-0.000001,0.050126,0.000065,-0.000022,0.333478,1.000000,0.000009,0.000011,-0.000007,0.000003,0.000003,0.038479
1790767399.792615,-0.000141,-0.001266,0.000113,-0.007713,0.000183,11.010892,-0.020130,0.449376,-0.893116,0.000008,-0.000001,0.050126,0.000065,-0.000022,0.333478,1.000000,0.000009,0.000011,-0.000007,0.000003,0.000003,0.038479
1790767399.796973,-0.000243,0.000344,-0.000780,-0.005520,-0.005277,11.004382,-0.020130,0.449376,-0.893116,0.000008,-0.000001,0.050126,0.000065,-0.000022,0.333478,1.000000,0.000009,0.000012,-0.000008,0.000004,0.000003,0.045535
1790767399.803420,-0.000195,-0.000002,-0.000802,-0.002632,-0.011141,11.006373,-0.020263,0.449764,-0.892917,0.000008,-0.000001,0.050126,0.000065,-0.000022,0.333478,1.000000,0.000009,0.000012,-0.000008,0.000004,0.000003,0.045535
1790767399.805176,0.000381,0.000567,-0.000658,0.003578,-0.002678,11.009870,-0.020263,0.449764,-0.892917,0.000008,-0.000001,0.050126,0.000065,-0.000022,0.333478,1.000000,0.000009,0.000012,-0.000008,0.000004,0.000003,0.045535
1790767399.808840,0.001100,0.000631,0.001118,0.012137,-0.007290,11.021111,-0.020209,0.449603,-0.893000,0.000011,-0.000002,0.063002,0.000074,-0.000028,0.377051,1.000000,0.000009,0.000012,-0.000008,0.000004,0.000003,0.045535
1790767399.813066,0.001114,-0.000220,-0.000754,-0.004419,-0.004594,11.026097,-0.020209,0.449603,-0.893000,0.000011,-0.000002,0.063002,0.000074,-0.000028,0.377051,1.000000,0.000009,0.000012,-0.000008,0.000004,0.000003,0.045535
1790767399.816787,-0.000051,-0.000242,0.000219,-0.010172,-0.004944,11.017973,-0.020209,0.449603,-0.893000,0.000011,-0.000002,0.063002,0.000074,-0.000028,0.377051,1.000000,0.000009,0.000013,-0.000009,0.000005,0.000002,0.053077
1790767399.821040,-0.000195,-0.000132,0.000331,-0.006727,0.009258,11.035182,-0.020296,0.449581,-0.893009,0.000011,-0.000002,0.063002,0.000074,-0.000028,0.377051,1.000000,0.000009,0.000013,-0.000009,0.000005,0.000002,0.053077
1790767399.824838,-0.000128,0.000353,-0.001918,-0.000824,-0.005695,11.020046,-0.020296,0.449581,-0.893009,0.000011,-0.000002,0.063002,0.000074,-0.000028,0.377051,1.000000,0.000009,0.000013,-0.000009,0.000005,0.000002,0.053077
1790767399.829167,0.001261,0.000758,0.001931,0.008484,-0.002813,11.029595,-0.019889,0.449316,-0.893151,0.000011,-0.000002,0.063002,0.000074,-0.000028,0.377051,1.000000,0.000009,0.000013,-0.000009,0.000005,0.000002,0.053077
1790767399.832798,0.000555,-0.001687,0.000723,0.003673,-0.002486,11.012151,-0.019889,0.449316,-0.893151,0.000011,-0.000002,0.063002,0.000074,-0.000028,0.377051,1.000000,0.000009,0.000013,-0.000009,0.000005,0.000002,0.053077
1790767399.837140,0.001492,0.000065,0.001345,-0.010223,0.003847,11.026824,-0.019889,0.449316,-0.893151,0.000011,-0.000002,0.063002,0.000074,-0.000028,0.377051,1.000000,0.000007,0.000012,-0.000009,0.000007,0.000001,0.061107
1790767399.840912,-0.000565,-0.000298,-0.000038,0.013868,-0.000919,11.027398,-0.020137,0.449218,-0.893195,0.000013,-0.000003,0.075773,0.000083,-0.000035,0.416246,1.000000,0.000007,0.000012,-0.000009,0.000007,0.000001,0.061107
1790767399.844688,-0.000682,-0.001253,-0.001100,0.004082,0.005260,11.022287,-0.020137,0.449218,-0.893195,0.000013,-0.000003,0.075773,0.000083,-0.000035,0.416246,1.000000,0.000007,0.000012,-0.000009,0.000007,0.000001,0.061107
1790767399.848834,-0.000549,-0.000052,0.001044,-0.009092,-0.001253,11.044426,-0.020185,0.449714,-0.892944,0.000013,-0.000003,0.075773,0.000083,-0.000035,0.416246,1.000000,0.000007,0.000012,-0.000009,0.000007,0.000001,0.061107
1790767399.853115,-0.002776,-0.000495,0.000563,-0.010249,-0.002319,11.018621,-0.020185,0.449714,-0.892944,0.000013,-0.000003,0.075773,0.000083,-0.000035,0.416246,1.000000,0.000007,0.000012,-0.000009,0.000007,0.000001,0.061107
1790767399.857527,-0.000736,-0.000305,0.000320,-0.004078,-0.004574,11.038432,-0.020185,0.449714,-0.892944,0.000013,-0.000003,0.075773,0.000083,-0.000035,0.416246,1.000000,0.000004,0.000012,-0.000010,0.000009,-0.000001,0.069630
1790767399.860636,-0.000619,-0.000497,-0.000181,-0.005783,-0.000630,11.033940,-0.020129,0.449642,-0.892982,0.000013,-0.000003,0.075773,0.000083,-0.000035,0.416246,1.000000,0.000004,0.000012,-0.000010,0.000009,-0.000001,0.069630
1790767399.864625,-0.001966,-0.001441,0.001117,0.011662,-0.007561,11.039034,-0.020129,0.449642,-0.892982,0.000013,-0.000003,0.075773,0.000083,-0.000035,0.416246,1.000000,0.000004,0.000012,-0.000010,0.000009,-0.000001,0.069630
1790767399.868430,0.000479,-0.001539,-0.000840,-0.000753,-0.005910,11.024811,-0.020210,0.449278,-0.893163,0.000013,-0.000003,0.075773,0.000083,-0.000035,0.416246,1.000000,0.000004,0.000012,-0.000010,0.000009,-0.000001,0.069630
1790767399.872706,0.000694,0.000337,0.001700,0.006516,-0.006405,11.055536,-0.020210,0.449278,-0.893163,0.000016,-0.000004,0.089805,0.000091,-0.000037,0.455953,1.000000,0.000004,0.000012,-0.000010,0.000009,-0.000001,0.069630
1790767399.877444,-0.000261,-0.001597,0.000250,0.000363,0.006559,11.053773,-0.020210,0.449278,-0.893163,0.000016,-0.000004,0.089805,0.000091,-0.000037,0.455953,1.000000,0.000003,0.000012,-0.000011,0.000010,-0.000003,0.078649
1790767399.880560,-0.000920,-0.000156,0.000259,0.000884,0.007957,11.069257,-0.020161,0.449625,-0.892990,0.000016,-0.000004,0.089805,0.000091,-0.000037,0.455953,1.000000,0.000003,0.000012,-0.000011,0.000010,-0.000003,0.078649
1790767399.884564,-0.000396,-0.000392,-0.000151,-0.001210,0.005332,11.064526,-0.020161,0.449625,-0.892990,0.000016,-0.000004,0.089805,0.000091,-0.000037,0.455953,1.000000,0.000003,0.000012,-0.000011,0.000010,-0.000003,0.078649
1790767399.889058,0.000319,-0.001551,0.000212,-0.001925,0.006476,11.089919,-0.020033,0.449845,-0.892882,0.000016,-0.000004,0.089805,0.000091,-0.000037,0.455953,1.000000,0.000003,0.000012,-0.000011,0.000010,-0.000003,0.078649
1790767399.892817,0.000163,-0.000114,-0.000321,-0.000863,-0.003101,11.062582,-0.020033,0.449845,-0.892882,0.000016,-0.000004,0.089805,0.000091,-0.000037,0.455953,1.000000,0.000003,0.000012,-0.000011,0.000010,-0.000003,0.078649
1790767399.896711,-0.000080,-0.000399,-0.000625,0.015984,-0.010102,11.086000,-0.020033,0.449845,-0.892882,0.000016,-0.000004,0.089805,0.000091,-0.000037,0.455953,1.000000,0.000003,0.000015,-0.000012,0.000011,-0.000003,0.088175
1790767399.900606,-0.000268,0.000229,0.000250,-0.000288,0.007594,11.094241,-0.019759,0.449611,-0.893006,0.000016,-0.000004,0.089805,0.000091,-0.000037,0.455953,1.000000,0.000003,0.000015,-0.000012,0.000011,-0.000003,0.088175
1790767399.904489,-0.001520,-0.000545,-0.000237,0.003383,-0.000478,11.075045,-0.019759,0.449611,-0.893006,0.000019,-0.000005,0.105129,0.000099,-0.000039,0.496804,1.000000,0.000003,0.000015,-0.000012,0.000011,-0.000003,0.088175
1790767399.909446,0.000090,-0.000107,-0.000218,-0.003689,-0.005382,11.077993,-0.020271,0.449641,-0.892980,0.000019,-0.000005,0.105129,0.000099,-0.000039,0.496804,1.000000,0.000003,0.000015,-0.000012,0.000011,-0.000003,0.088175
1790767399.912992,0.000363,-0.000067,-0.000832,0.002937,0.009605,11.077743,-0.020271,0.449641,-0.892980,0.000019,-0.000005,0.105129,0.000099,-0.000039,0.496804,1.000000,0.000003,0.000015,-0.000012,0.000011,-0.000003,0.088175
1790767399.916660,-0.000373,0.001219,-0.000218,0.000784,-0.000479,11.073809,-0.020271,0.449641,-0.892980,0.000019,-0.000005,0.105129,0.000099,-0.000039,0.496804,1.000000,0.000003,0.000018,-0.000013,0.000012,-0.000004,0.098213
1790767399.920721,-0.000096,-0.000109,0.001167,-0.011052,-0.005088,11.076148,-0.020272,0.449717,-0.892941,0.000019,-0.000005,0.105129,0.000099,-0.000039,0.496804,1.000000,0.000003,0.000018,-0.000013,0.000012,-0.000004,0.098213
1790767399.924896,-0.002171,0.000645,0.000491,0.010127,-0.003834,11.077664,-0.020272,0.449717,-0.892941,0.000019,-0.000005,0.105129,0.000099,-0.000039,0.496804,1.000000,0.000003,0.000018,-0.000013,0.000012,-0.000004,0.098213
1790767399.928878,-0.000408,-0.000482,0.000853,0.001921,-0.012690,11.075221,-0.019872,0.449501,-0.893059,0.000019,-0.000005,0.105129,0.000099,-0.000039,0.496804,1.000000,0.000003,0.000018,-0.000013,0.000012,-0.000004,0.098213
1790767399.933222,0.000218,0.000131,-0.000012,0.006411,-0.006438,11.063546,-0.019872,0.449501,-0.893059,0.000019,-0.000005,0.105129,0.000099,-0.000039,0.496804,1.000000,0.000003,0.000018,-0.000013,0.000012,-0.000004,0.098213
1790767399.936444,0.000207,-0.000599,0.000151,-0.002271,-0.001733,11.077590,-0.019872,0.449501,-0.893059,0.000019,-0.000005,0.105129,0.000099,-0.000039,0.496804,1.000000,0.000005,0.000021,-0.000014,0.000013,-0.000004,0.108762
1790767399.941239,-0.000482,0.001399,-0.000696,0.001082,-0.000081,11.070314,-0.020081,0.449595,-0.893007,0.000023,-0.000007,0.123933,0.000114,-0.000042,0.542686,1.000000,0.000005,0.000021,-0.000014,0.000013,-0.000004,0.108762
1790767399.945080,0.001878,-0.000206,-0.001457,0.000607,-0.004203,11.077903,-0.020081,0.449595,-0.893007,0.000023,-0.000007,0.123933,0.000114,-0.000042,0.542686,1.000000,0.000005,0.000021,-0.000014,0.000013,-0.000004,0.108762
1790767399.948967,0.002556,-0.000690,0.000072,0.001028,-0.006383,11.065557,-0.020269,0.449563,-0.893019,0.000023,-0.000007,0.123933,0.000114,-0.000042,0.542686,1.000000,0.000005,0.000021,-0.000014,0.000013,-0.000004,0.108762
1790767399.952446,0.000270,0.000349,0.000633,-0.005160,-0.000447,11.073535,-0.020269,0.449563,-0.893019,0.000023,-0.000007,0.123933,0.000114,-0.000042,0.542686,1.000000,0.000005,0.000021,-0.000014,0.000013,-0.000004,0.108762
1790767399.956778,0.001001,-0.000371,-0.001240,-0.005074,0.004913,11.083017,-0.020269,0.449563,-0.893019,0.000023,-0.000007,0.123933,0.000114,-0.000042,0.542686,1.000000,0.000006,0.000023,-0.000015,0.000014,-0.000004,0.119819
1790767399.961357,-0.000786,0.002251,-0.000550,-0.001080,0.002381,11.069520,-0.020271,0.449761,-0.892919,0.000023,-0.000007,0.123933,0.000114,-0.000042,0.542686,1.000000,0.000006,0.000023,-0.000015,0.000014,-0.000004,0.119819
1790767399.964489,0.001289,-0.001797,-0.001795,-0.000626,0.000475,11.064472,-0.020271,0.449761,-0.892919,0.000023,-0.000007,0.123933,0.000114,-0.000042,0.542686,1.000000,0.000006,0.000023,-0.000015,0.000014,-0.000004,0.119819
1790767399.969290,0.000183,0.001540,-0.000383,0.000942,-0.003102,11.069009,-0.019956,0.449658,-0.892978,0.000023,-0.000007,0.123933,0.000114,-0.000042,0.542686,1.000000,0.000006,0.000023,-0.000015,0.000014,-0.000004,0.119819
1790767399.973869,-0.001870,0.001464,0.000754,-0.006105,0.010921,11.076079,-0.019956,0.449658,-0.892978,0.000027,-0.000008,0.142031,0.000129,-0.000046,0.583348,1.000000,0.000006,0.000025,-0.000016,0.000015,-0.000005,0.129030
1790767399.977028,-0.001858,0.000550,0.000874,-0.002948,0.005444,11.072527,-0.019956,0.449658,-0.892978,0.000027,-0.000008,0.142031,0.000129,-0.000046,0.583348,1.000000,0.000006,0.000025,-0.000016,0.000015,-0.000005,0.129030
1790767399.980871,-0.001754,-0.000216,-0.002273,0.008596,0.003271,11.074255,-0.020315,0.449731,-0.892933,0.000027,-0.000008,0.142031,0.000129,-0.000046,0.583348,1.000000,0.000006,0.000025,-0.000016,0.000015,-0.000005,0.129030
1790767399.984731,-0.000269,-0.001306,-0.000190,0.000242,-0.000006,11.080437,-0.020315,0.449731,-0.892933,0.000027,-0.000008,0.142031,0.000129,-0.000046,0.583348,1.000000,0.000006,0.000025,-0.000016,0.000015,-0.000005,0.129030
1790767399.988535,0.001020,-0.001426,-0.000201,0.007380,-0.003375,11.084232,-0.019998,0.449721,-0.892945,0.000027,-0.000008,0.142031,0.000129,-0.000046,0.583348,1.000000,0.000006,0.000025,-0.000016,0.000015,-0.000005,0.129030
1790767399.992773,-0.000953,0.000737,0.000222,-0.002488,0.007856,11.057042,-0.019998,0.449721,-0.892945,0.000027,-0.000008,0.142031,0.000129,-0.000046,0.583348,1.000000,0.000006,0.000028,-0.000016,0.000016,-0.000006,0.141002
1790767399.996754,0.000225,-0.000942,-0.000448,0.003377,0.000509,11.060893,-0.019998,0.449721,-0.892945,0.000027,-0.000008,0.142031,0.000129,-0.000046,0.583348,1.000000,0.000006,0.000028,-0.000016,0.000016,-0.000006,0.141002
1790767400.000804,0.001688,-0.001009,-0.000284,-0.003732,0.013125,11.068528,-0.020269,0.449667,-0.892966,0.000027,-0.000008,0.142031,0.000129,-0.000046,0.583348,1.000000,0.000006,0.000028,-0.000016,0.000016,-0.000006,0.141002
1790767400.004756,-0.000210,0.000844,-0.000323,-0.002779,-0.007418,11.081001,-0.020269,0.449667,-0.892966,0.000031,-0.000010,0.161430,0.000147,-0.000050,0.624053,1.000000,0.000006,0.000028,-0.000016,0.000016,-0.000006,0.141002
1790767400.012703,-0.000318,0.000889,-0.001068,-0.007967,0.002664,11.079176,-0.020066,0.449372,-0.893120,0.000031,-0.000010,0.161430,0.000147,-0.000050,0.624053,1.000000,0.000006,0.000032,-0.000017,0.000017,-0.000007,0.153484
1790767400.013865,-0.000318,0.000889,-0.001068,-0.007967,0.002664,11.079176,-0.020066,0.449372,-0.893120,0.000031,-0.000010,0.161430,0.000147,-0.000050,0.624053,1.000000,0.000006,0.000032,-0.000017,0.000017,-0.000007,0.153484
1790767400.016536,0.001318,0.000610,-0.000697,0.001546,-0.002456,11.068826,-0.020066,0.449372,-0.893120,0.000031,-0.000010,0.161430,0.000147,-0.000050,0.624053,1.000000,0.000006,0.000032,-0.000017,0.000017,-0.000007,0.153484
1790767400.020652,0.001043,0.001271,-0.000138,-0.004399,-0.007647,11.101859,-0.019966,0.449758,-0.892927,0.000031,-0.000010,0.161430,0.000147,-0.000050,0.624053,1.000000,0.000006,0.000032,-0.000017,0.000017,-0.000007,0.153484
1790767400.024822,0.000479,0.000444,0.000697,-0.006853,-0.012230,11.088507,-0.019966,0.449758,-0.892927,0.000031,-0.000010,0.161430,0.000147,-0.000050,0.624053,1.000000,0.000006,0.000032,-0.000017,0.000017,-0.000007,0.153484
1790767400.028884,-0.001053,0.000995,-0.000687,0.004081,0.014149,11.078951,-0.020070,0.449986,-0.892810,0.000031,-0.000010,0.161430,0.000147,-0.000050,0.624053,1.000000,0.000006,0.000032,-0.000017,0.000017,-0.000007,0.153484
1790767400.032755,0.000788,-0.000750,-0.002157,-0.001938,0.002044,11.070586,-0.020070,0.449986,-0.892810,0.000031,-0.000010,0.161430,0.000147,-0.000050,0.624053,1.000000,0.000004,0.000037,-0.000017,0.000018,-0.000009,0.166478
1790767400.036462,0.000513,0.000886,0.001303,-0.007854,0.000789,11.068851,-0.020070,0.449986,-0.892810,0.000036,-0.000011,0.182138,0.000171,-0.000054,0.665098,1.000000,0.000004,0.000037,-0.000017,0.000018,-0.000009,0.166478
1790767400.041175,0.001738,0.001304,0.000695,0.000482,0.001049,11.084827,-0.020113,0.449355,-0.893127,0.000036,-0.000011,0.182138,0.000171,-0.000054,0.665098,1.000000,0.000004,0.000037,-0.000017,0.000018,-0.000009,0.166478
1790767400.044809,-0.000168,0.001212,0.000532,-0.006422,-0.008676,11.095339,-0.020113,0.449355,-0.893127,0.000036,-0.000011,0.182138,0.000171,-0.000054,0.665098,1.000000,0.000004,0.000037,-0.000017,0.000018,-0.000009,0.166478
1790767400.048618,-0.000298,-0.000024,-0.001212,0.003239,0.000454,11.095613,-0.020358,0.449745,-0.892925,0.000036,-0.000011,0.182138,0.000171,-0.000054,0.665098,1.000000,0.000004,0.000037,-0.000017,0.000018,-0.000009,0.166478
1790767400.052413,-0.001394,0.000147,0.000252,-0.006689,-0.009999,11.101484,-0.020358,0.449745,-0.892925,0.000036,-0.000011,0.182138,0.000171,-0.000054,0.665098,1.000000,0.000001,0.000041,-0.000016,0.000019,-0.000012,0.179986
1790767400.056470,-0.001403,0.000129,-0.000301,-0.004768,0.001355,11.086342,-0.020358,0.449745,-0.892925,0.000036,-0.000011,0.182138,0.000171,-0.000054,0.665098,1.000000,0.000001,0.000041,-0.000016,0.000019,-0.000012,0.179986
1790767400.060704,-0.000504,0.000823,-0.000613,0.001290,0.007751,11.080075,-0.020000,0.449304,-0.893155,0.000036,-0.000011,0.182138,0.000171,-0.000054,0.665098,1.000000,0.000001,0.000041,-0.000016,0.000019,-0.000012,0.179986
1790767400.064551,-0.000371,-0.001293,0.000056,-0.002626,-0.009875,11.077388,-0.020000,0.449304,-0.893155,0.000036,-0.000011,0.182138,0.000171,-0.000054,0.665098,1.000000,0.000001,0.000041,-0.000016,0.000019,-0.000012,0.179986
1790767400.068736,-0.000594,-0.000292,0.000928,0.002525,0.000379,11.074822,-0.019486,0.449365,-0.893136,0.000036,-0.000011,0.182138,0.000171,-0.000054,0.665098,1.000000,0.000001,0.000041,-0.000016,0.000019,-0.000012,0.179986
1790767400.074195,-0.001962,0.000141,0.000079,0.000313,-0.002398,11.078412,-0.019486,0.449365,-0.893136,0.000043,-0.000013,0.207009,0.000203,-0.000055,0.711368,1.000000,-0.000004,0.000043,-0.000016,0.000022,-0.000015,0.194008
1790767400.076640,-0.000895,0.000713,-0.000052,0.000103,-0.004732,11.083835,-0.019486,0.449365,-0.893136,0.000043,-0.000013,0.207009,0.000203,-0.000055,0.711368,1.000000,-0.000004,0.000043,-0.000016,0.000022,-0.000015,0.194008
1790767400.080686,-0.000349,-0.001272,0.001379,0.000199,-0.001925,11.090759,-0.020278,0.449721,-0.892939,0.000043,-0.000013,0.207009,0.000203,-0.000055,0.711368,1.000000,-0.000004,0.000043,-0.000016,0.000022,-0.000015,0.194008
1790767400.084582,-0.000802,-0.000757,-0.000790,0.008816,-0.000014,11.095344,-0.020278,0.449721,-0.892939,0.000043,-0.000013,0.207009,0.000203,-0.000055,0.711368,1.000000,-0.000004,0.000043,-0.000016,0.000022,-0.000015,0.194008
1790767400.089273,0.001001,-0.000600,-0.000757,-0.002393,-0.006066,11.104896,-0.020190,0.449797,-0.892903,0.000043,-0.000013,0.207009,0.000203,-0.000055,0.711368,1.000000,-0.000004,0.000043,-0.000016,0.000022,-0.000015,0.194008
1790767400.092914,0.000498,-0.000774,-0.000799,0.000765,0.002001,11.107699,-0.020190,0.449797,-0.892903,0.000043,-0.000013,0.207009,0.000203,-0.000055,0.711368,1.000000,-0.000007,0.000045,-0.000016,0.000026,-0.000018,0.208545
1790767400.097641,-0.000645,0.000648,0.000463,-0.003436,-0.009882,11.094995,-0.020190,0.449797,-0.892903,0.000043,-0.000013,0.207009,0.000203,-0.000055,0.711368,1.000000,-0.000007,0.000045,-0.000016,0.000026,-0.000018,0.208545
1790767400.100858,-0.000273,0.000716,0.000484,-0.000303,-0.000458,11.103741,-0.020299,0.449363,-0.893119,0.000043,-0.000013,0.207009,0.000203,-0.000055,0.711368,1.000000,-0.000007,0.000045,-0.000016,0.000026,-0.000018,0.208545
1790767400.105122,-0.001673,-0.001123,0.001457,0.007703,-0.009824,11.126470,-0.020299,0.449363,-0.893119,0.000050,-0.000015,0.230518,0.000234,-0.000051,0.752994,1.000000,-0.000007,0.000045,-0.000016,0.000026,-0.000018,0.208545
1790767400.108952,-0.000300,0.000330,0.000961,0.008949,0.004362,11.124740,-0.020362,0.449359,-0.893119,0.000050,-0.000015,0.230518,0.000234,-0.000051,0.752994,1.000000,-0.000007,0.000045,-0.000016,0.000026,-0.000018,0.208545
1790767400.113122,0.000421,0.000401,-0.001542,-0.006847,-0.003213,11.112874,-0.020362,0.449359,-0.893119,0.000050,-0.000015,0.230518,0.000234,-0.000051,0.752994,1.000000,-0.000010,0.000047,-0.000016,0.000030,-0.000020,0.223605
1790767400.116874,0.001209,0.000489,-0.000241,-0.010954,0.003111,11.100321,-0.020362,0.449359,-0.893119,0.000050,-0.000015,0.230518,0.000234,-0.000051,0.752994,1.000000,-0.000010,0.000047,-0.000016,0.000030,-0.000020,0.223605
1790767400.120713,-0.002472,0.000239,0.000336,-0.010631,-0.006011,11.091942,-0.019966,0.449321,-0.893147,0.000050,-0.000015,0.230518,0.000234,-0.000051,0.752994,1.000000,-0.000010,0.000047,-0.000016,0.000030,-0.000020,0.223605
1790767400.125100,-0.000286,0.000579,-0.000216,-0.006374,0.005014,11.090715,-0.019966,0.449321,-0.893147,0.000050,-0.000015,0.230518,0.000234,-0.000051,0.752994,1.000000,-0.000010,0.000047,-0.000016,0.000030,-0.000020,0.223605
1790767400.128753,-0.000002,0.000281,0.000152,-0.000987,0.003498,11.078915,-0.020151,0.449694,-0.892955,0.000050,-0.000015,0.230518,0.000234,-0.000051,0.752994,1.000000,-0.000010,0.000047,-0.000016,0.000030,-0.000020,0.223605
1790767400.133489,0.000376,-0.000554,0.000730,-0.005860,0.001709,11.079905,-0.020151,0.449694,-0.892955,0.000050,-0.000015,0.230518,0.000234,-0.000051,0.752994,1.000000,-0.000012,0.000048,-0.000015,0.000034,-0.000022,0.239186
1790767400.136594,-0.000048,0.000364,0.000212,0.001483,-0.002726,11.086479,-0.020151,0.449694,-0.892955,0.000058,-0.000016,0.255364,0.000267,-0.000043,0.794463,1.000000,-0.000012,0.000048,-0.000015,0.000034,-0.000022,0.239186
1790767400.140967,-0.000846,-0.000190,0.000711,-0.001982,0.000990,11.082585,-0.020207,0.449496,-0.893054,0.000058,-0.000016,0.255364,0.000267,-0.000043,0.794463,1.000000,-0.000012,0.000048,-0.000015,0.000034,-0.000022,0.239186
1790767400.144659,-0.000380,-0.000010,0.000899,0.001710,-0.001581,11.078714,-0.020207,0.449496,-0.893054,0.000058,-0.000016,0.255364,0.000267,-0.000043,0.794463,1.000000,-0.000012,0.000048,-0.000015,0.000034,-0.000022,0.239186
1790767400.151823,-0.000134,0.002180,0.001025,0.001324,0.016338,11.074339,-0.020208,0.449354,-0.893125,0.000058,-0.000016,0.255364,0.000267,-0.000043,0.794463,1.000000,-0.000012,0.000048,-0.000015,0.000034,-0.000022,0.239186
1790767400.153234,0.000312,0.000164,0.001148,0.002235,-0.001260,11.070948,-0.020208,0.449354,-0.893125,0.000058,-0.000016,0.255364,0.000267,-0.000043,0.794463,1.000000,-0.000015,0.000048,-0.000015,0.000040,-0.000024,0.255280
1790767400.156578,-0.000650,0.000578,-0.001513,-0.004685,-0.003247,11.064073,-0.020208,0.449354,-0.893125,0.000058,-0.000016,0.255364,0.000267,-0.000043,0.794463,1.000000,-0.000015,0.000048,-0.000015,0.000040,-0.000024,0.255280
1790767400.161303,0.000124,0.000421,0.001290,-0.001200,0.003406,11.073503,-0.019909,0.449437,-0.893090,0.000058,-0.000016,0.255364,0.000267,-0.000043,0.794463,1.000000,-0.000015,0.000048,-0.000015,0.000040,-0.000024,0.255280
1790767400.164541,0.000100,-0.000223,-0.001544,0.006375,-0.012239,11.068537,-0.019909,0.449437,-0.893090,0.000058,-0.000016,0.255364,0.000267,-0.000043,0.794463,1.000000,-0.000015,0.000048,-0.000015,0.000040,-0.000024,0.255280
1790767400.168730,0.000524,-0.000867,-0.002125,-0.002906,0.009683,11.059208,-0.020019,0.449515,-0.893049,0.000067,-0.000018,0.281522,0.000301,-0.000033,0.835229,1.000000,-0.000015,0.000048,-0.000015,0.000040,-0.000024,0.255280
1790767400.172799,0.000625,0.000929,-0.001353,-0.002761,0.002476,11.066627,-0.020019,0.449515,-0.893049,0.000067,-0.000018,0.281522,0.000301,-0.000033,0.835229,1.000000,-0.000016,0.000048,-0.000015,0.000046,-0.000026,0.271883
1790767400.176673,0.000885,0.000053,0.000007,0.003621,-0.001815,11.068853,-0.020019,0.449515,-0.893049,0.000067,-0.000018,0.281522,0.000301,-0.000033,0.835229,1.000000,-0.000016,0.000048,-0.000015,0.000046,-0.000026,0.271883
1790767400.180934,-0.001003,0.000152,-0.000358,0.003634,-0.009013,11.063880,-0.020207,0.449772,-0.892915,0.000067,-0.000018,0.281522,0.000301,-0.000033,0.835229,1.000000,-0.000016,0.000048,-0.000015,0.000046,-0.000026,0.271883
1790767400.184492,0.000567,-0.000130,0.000172,-0.000046,0.002360,11.053745,-0.020207,0.449772,-0.892915,0.000067,-0.000018,0.281522,0.000301,-0.000033,0.835229,1.000000,-0.000016,0.000048,-0.000015,0.000046,-0.000026,0.271883
1790767400.188833,-0.000238,-0.001651,-0.000828,-0.003041,0.004965,11.055669,-0.020276,0.449847,-0.892875,0.000067,-0.000018,0.281522,0.000301,-0.000033,0.835229,1.000000,-0.000016,0.000048,-0.000015,0.000046,-0.000026,0.271883
1790767400.192852,0.000718,0.001027,0.000945,-0.001766,0.000304,11.054541,-0.020276,0.449847,-0.892875,0.000067,-0.000018,0.281522,0.000301,-0.000033,0.835229,1.000000,-0.000018,0.000049,-0.000015,0.000051,-0.000027,0.288991
1790767400.197023,0.000005,-0.001372,0.001504,0.009649,-0.003993,11.054542,-0.020276,0.449847,-0.892875,0.000067,-0.000018,0.281522,0.000301,-0.000033,0.835229,1.000000,-0.000018,0.000049,-0.000015,0.000051,-0.000027,0.288991
1790767400.200779,0.000456,-0.000247,-0.000483,-0.004955,0.008478,11.053246,-0.020122,0.449441,-0.893083,0.000067,-0.000018,0.281522,0.000301,-0.000033,0.835229,1.000000,-0.000018,0.000049,-0.000015,0.000051,-0.000027,0.288991
1790767400.205303,0.000312,0.001177,-0.000275,0.009204,0.009550,11.055148,-0.020122,0.449441,-0.893083,0.000079,-0.000019,0.312497,0.000338,-0.000019,0.880473,1.000000,-0.000018,0.000049,-0.000015,0.000051,-0.000027,0.288991
1790767400.209078,-0.002443,0.002530,-0.000014,-0.001570,-0.001399,11.037177,-0.020053,0.449766,-0.892921,0.000079,-0.000019,0.312497,0.000338,-0.000019,0.880473,1.000000,-0.000018,0.000049,-0.000015,0.000051,-0.000027,0.288991
1790767400.212879,-0.000484,0.001109,-0.001558,-0.012748,-0.005944,11.045142,-0.020053,0.449766,-0.892921,0.000079,-0.000019,0.312497,0.000338,-0.000019,0.880473,1.000000,-0.000021,0.000053,-0.000015,0.000056,-0.000029,0.306601
1790767400.216428,-0.000486,-0.001223,0.000234,0.000981,0.005303,11.046009,-0.020053,0.449766,-0.892921,0.000079,-0.000019,0.312497,0.000338,-0.000019,0.880473,1.000000,-0.000021,0.000053,-0.000015,0.000056,-0.000029,0.306601
1790767400.220560,-0.000067,0.001030,-0.001618,-0.006694,0.003754,11.046503,-0.020158,0.449688,-0.892958,0.000079,-0.000019,0.312497,0.000338,-0.000019,0.880473,1.000000,-0.000021,0.000053,-0.000015,0.000056,-0.000029,0.306601
1790767400.228184,-0.001057,-0.000910,0.001814,-0.001810,-0.003186,11.041033,-0.019603,0.449146,-0.893243,0.000079,-0.000019,0.312497,0.000338,-0.000019,0.880473,1.000000,-0.000021,0.000053,-0.000015,0.000056,-0.000029,0.306601
1790767400.229100,-0.001057,-0.000910,0.001814,-0.001810,-0.003186,11.041033,-0.019603,0.449146,-0.893243,0.000079,-0.000019,0.312497,0.000338,-0.000019,0.880473,1.000000,-0.000021,0.000053,-0.000015,0.000056,-0.000029,0.306601
1790767400.232605,-0.000174,0.000000,-0.000231,-0.004756,0.008355,11.025404,-0.019603,0.449146,-0.893243,0.000079,-0.000019,0.312497,0.000338,-0.000019,0.880473,1.000000,-0.000023,0.000055,-0.000014,0.000063,-0.000030,0.324709
1790767400.236640,-0.000162,0.000449,0.000025,0.005361,0.016182,11.038123,-0.019603,0.449146,-0.893243,0.000090,-0.000019,0.341390,0.000375,-0.000003,0.920286,1.000000,-0.000023,0.000055,-0.000014,0.000063,-0.000030,0.324709
1790767400.240729,-0.000625,-0.000224,-0.001171,-0.004088,0.006628,11.031688,-0.020086,0.449499,-0.893055,0.000090,-0.000019,0.341390,0.000375,-0.000003,0.920286,1.000000,-0.000023,0.000055,-0.000014,0.000063,-0.000030,0.324709
1790767400.244688,0.000561,-0.000396,0.000130,-0.009906,0.007197,11.036454,-0.020086,0.449499,-0.893055,0.000090,-0.000019,0.341390,0.000375,-0.000003,0.920286,1.000000,-0.000023,0.000055,-0.000014,0.000063,-0.000030,0.324709
1790767400.250452,0.000386,-0.000167,0.000118,0.000374,0.008174,11.031543,-0.020077,0.449783,-0.892912,0.000090,-0.000019,0.341390,0.000375,-0.000003,0.920286,1.000000,-0.000023,0.000055,-0.000014,0.000063,-0.000030,0.324709
1790767400.252656,-0.000398,-0.000728,-0.000341,-0.015429,0.001259,11.025560,-0.020077,0.449783,-0.892912,0.000090,-0.000019,0.341390,0.000375,-0.000003,0.920286,1.000000,-0.000024,0.000056,-0.000014,0.000070,-0.000030,0.343312
1790767400.256660,0.000813,-0.001108,0.000260,-0.007456,-0.013851,11.022930,-0.020077,0.449783,-0.892912,0.000090,-0.000019,0.341390,0.000375,-0.000003,0.920286,1.000000,-0.000024,0.000056,-0.000014,0.000070,-0.000030,0.343312
1790767400.260935,0.001111,-0.000414,0.000032,0.002954,-0.008669,11.048324,-0.019999,0.449381,-0.893116,0.000090,-0.000019,0.341390,0.000375,-0.000003,0.920286,1.000000,-0.000024,0.000056,-0.000014,0.000070,-0.000030,0.343312
1790767400.264535,-0.000275,0.001331,-0.000762,-0.004739,-0.011199,11.048181,-0.019999,0.449381,-0.893116,0.000090,-0.000019,0.341390,0.000375,-0.000003,0.920286,1.000000,-0.000024,0.000056,-0.000014,0.000070,-0.000030,0.343312
1790767400.268714,-0.000583,0.000114,-0.000254,-0.005996,-0.013589,11.062535,-0.019805,0.449593,-0.893014,0.000103,-0.000019,0.371551,0.000413,0.000015,0.959929,1.000000,-0.000024,0.000056,-0.000014,0.000070,-0.000030,0.343312
1790767400.273886,-0.000660,-0.000122,0.000184,-0.006867,-0.009089,11.062515,-0.019805,0.449593,-0.893014,0.000103,-0.000019,0.371551,0.000413,0.000015,0.959929,1.000000,-0.000025,0.000056,-0.000013,0.000078,-0.000030,0.362411
1790767400.276731,-0.000671,0.000212,-0.000114,0.002656,-0.009236,11.069460,-0.019805,0.449593,-0.893014,0.000103,-0.000019,0.371551,0.000413,0.000015,0.959929,1.000000,-0.000025,0.000056,-0.000013,0.000078,-0.000030,0.362411
1790767400.280559,0.000237,-0.000786,0.000124,0.000609,0.004070,11.076821,-0.020271,0.449371,-0.893115,0.000103,-0.000019,0.371551,0.000413,0.000015,0.959929,1.000000,-0.000025,0.000056,-0.000013,0.000078,-0.000030,0.362411
1790767400.284290,0.000617,0.001439,0.000459,-0.000497,0.008753,11.072333,-0.020271,0.449371,-0.893115,0.000103,-0.000019,0.371551,0.000413,0.000015,0.959929,1.000000,-0.000025,0.000056,-0.000013,0.000078,-0.000030,0.362411
1790767400.288635,-0.000378,-0.001402,-0.000212,-0.006556,-0.005146,11.075216,-0.019948,0.449569,-0.893023,0.000103,-0.000019,0.371551,0.000413,0.000015,0.959929,1.000000,-0.000025,0.000056,-0.000013,0.000078,-0.000030,0.362411
1790767400.292907,0.000046,-0.000115,-0.000090,0.000210,0.004825,11.083918,-0.019948,0.449569,-0.893023,0.000103,-0.000019,0.371551,0.000413,0.000015,0.959929,1.000000,-0.000025,0.000056,-0.000012,0.000087,-0.000030,0.382016
1790767400.296484,0.001054,0.000087,0.000318,0.003961,-0.003925,11.080395,-0.019948,0.449569,-0.893023,0.000103,-0.000019,0.371551,0.000413,0.000015,0.959929,1.000000,-0.000025,0.000056,-0.000012,0.000087,-0.000030,0.382016
1790767400.301002,0.000948,-0.000386,-0.000444,0.008898,-0.003307,11.086742,-0.020344,0.449495,-0.893051,0.000117,-0.000018,0.403002,0.000452,0.000033,1.000732,1.000000,-0.000025,0.000056,-0.000012,0.000087,-0.000030,0.382016
1790767400.304692,-0.001703,0.000549,0.000188,-0.001854,0.005497,11.063285,-0.020344,0.449495,-0.893051,0.000117,-0.000018,0.403002,0.000452,0.000033,1.000732,1.000000,-0.000025,0.000056,-0.000012,0.000087,-0.000030,0.382016
1790767400.309201,0.001062,-0.000851,-0.001100,0.002629,0.021068,11.053104,-0.020029,0.449136,-0.893239,0.000117,-0.000018,0.403002,0.000452,0.000033,1.000732,1.000000,-0.000025,0.000056,-0.000012,0.000087,-0.000030,0.382016
1790767400.312799,0.001301,-0.001811,0.000360,0.013472,0.006052,11.046208,-0.020029,0.449136,-0.893239,0.000117,-0.000018,0.403002,0.000452,0.000033,1.000732,1.000000,-0.000024,0.000055,-0.000011,0.000096,-0.000029,0.402131
1790767400.316507,0.000882,-0.000466,0.000903,-0.000574,0.000543,11.047499,-0.020029,0.449136,-0.893239,0.000117,-0.000018,0.403002,0.000452,0.000033,1.000732,1.000000,-0.000024,0.000055,-0.000011,0.000096,-0.000029,0.402131
1790767400.320433,-0.000294,-0.000476,-0.001019,-0.007406,0.004147,11.028434,-0.020022,0.449610,-0.893001,0.000117,-0.000018,0.403002,0.000452,0.000033,1.000732,1.000000,-0.000024,0.000055,-0.000011,0.000096,-0.000029,0.402131
1790767400.325187,0.000224,0.000906,-0.001740,0.007782,-0.010087,11.012969,-0.020022,0.449610,-0.893001,0.000117,-0.000018,0.403002,0.000452,0.000033,1.000732,1.000000,-0.000024,0.000055,-0.000011,0.000096,-0.000029,0.402131
1790767400.328530,-0.000733,-0.001728,0.000883,-0.002983,0.002034,11.009958,-0.019874,0.449303,-0.893158,0.000117,-0.000018,0.403002,0.000452,0.000033,1.000732,1.000000,-0.000024,0.000055,-0.000011,0.000096,-0.000029,0.402131
1790767400.332664,-0.002522,0.000273,-0.000222,0.000468,-0.005949,11.008423,-0.019874,0.449303,-0.893158,0.000117,-0.000018,0.403002,0.000452,0.000033,1.000732,1.000000,-0.000024,0.000053,-0.000010,0.000107,-0.000028,0.422742
1790767400.336654,0.000495,-0.000612,0.000261,0.011506,0.001899,11.005096,-0.019874,0.449303,-0.893158,0.000134,-0.000016,0.439923,0.000493,0.000052,1.045103,1.000000,-0.000024,0.000053,-0.000010,0.000107,-0.000028,0.422742
1790767400.341308,-0.000447,-0.001330,0.000427,-0.003811,-0.000572,11.009696,-0.020020,0.449547,-0.893032,0.000134,-0.000016,0.439923,0.000493,0.000052,1.045103,1.000000,-0.000024,0.000053,-0.000010,0.000107,-0.000028,0.422742
1790767400.344982,0.000142,0.000836,0.000840,-0.011187,0.002788,10.989706,-0.020020,0.449547,-0.893032,0.000134,-0.000016,0.439923,0.000493,0.000052,1.045103,1.000000,-0.000024,0.000053,-0.000010,0.000107,-0.000028,0.422742
1790767400.348561,-0.001379,0.000444,0.000649,0.004733,-0.005432,10.984789,-0.020082,0.449682,-0.892963,0.000134,-0.000016,0.439923,0.000493,0.000052,1.045103,1.000000,-0.000024,0.000053,-0.000010,0.000107,-0.000028,0.422742
1790767400.352808,0.001126,-0.000797,-0.000343,0.000355,-0.011207,10.980465,-0.020082,0.449682,-0.892963,0.000134,-0.000016,0.439923,0.000493,0.000052,1.045103,1.000000,-0.000023,0.000052,-0.000008,0.000117,-0.000026,0.443835
1790767400.356821,0.000404,-0.000776,-0.001056,0.000236,0.005459,10.990287,-0.020082,0.449682,-0.892963,0.000134,-0.000016,0.439923,0.000493,0.000052,1.045103,1.000000,-0.000023,0.000052,-0.000008,0.000117,-0.000026,0.443835
1790767400.360548,-0.000314,0.000312,0.001731,0.005709,-0.001437,10.980216,-0.020083,0.449772,-0.892918,0.000134,-0.000016,0.439923,0.000493,0.000052,1.045103,1.000000,-0.000023,0.000052,-0.000008,0.000117,-0.000026,0.443835
1790767400.364534,0.000261,-0.000307,0.001898,-0.001564,0.011819,10.989639,-0.020083,0.449772,-0.892918,0.000134,-0.000016,0.439923,0.000493,0.000052,1.045103,1.000000,-0.000023,0.000052,-0.000008,0.000117,-0.000026,0.443835
1790767400.368989,0.001338,-0.000530,0.000417,0.002302,-0.007131,10.962017,-0.019912,0.449164,-0.893227,0.000150,-0.000014,0.474052,0.000528,0.000069,1.083078,1.000000,-0.000023,0.000052,-0.000008,0.000117,-0.000026,0.443835
1790767400.372539,0.000983,-0.000839,0.000522,-0.003972,0.006697,10.957568,-0.019912,0.449164,-0.893227,0.000150,-0.000014,0.474052,0.000528,0.000069,1.083078,1.000000,-0.000021,0.000051,-0.000007,0.000128,-0.000024,0.465403
1790767400.376534,0.001142,0.000698,0.000228,0.008842,0.000247,10.956558,-0.019912,0.449164,-0.893227,0.000150,-0.000014,0.474052,0.000528,0.000069,1.083078,1.000000,-0.000021,0.000051,-0.000007,0.000128,-0.000024,0.465403
1790767400.380787,-0.000739,0.000006,-0.000259,0.002009,0.002892,10.953564,-0.020258,0.449384,-0.893109,0.000150,-0.000014,0.474052,0.000528,0.000069,1.083078,1.000000,-0.000021,0.000051,-0.000007,0.000128,-0.000024,0.465403
1790767400.384501,0.000222,0.001377,-0.000301,-0.005591,-0.011686,10.944779,-0.020258,0.449384,-0.893109,0.000150,-0.000014,0.474052,0.000528,0.000069,1.083078,1.000000,-0.000021,0.000051,-0.000007,0.000128,-0.000024,0.465403
1790767400.388584,0.001281,-0.001585,0.001145,-0.001703,0.009683,10.956892,-0.019877,0.449671,-0.892973,0.000150,-0.000014,0.474052,0.000528,0.000069,1.083078,1.000000,-0.000021,0.000051,-0.000007,0.000128,-0.000024,0.465403
1790767400.393000,0.001797,0.000241,-0.000106,0.004286,0.000752,10.948637,-0.019877,0.449671,-0.892973,0.000150,-0.000014,0.474052,0.000528,0.000069,1.083078,1.000000,-0.000019,0.000049,-0.000007,0.000140,-0.000022,0.487436
1790767400.396534,0.000164,0.000398,0.000569,0.009846,0.000309,10.941452,-0.019877,0.449671,-0.892973,0.000150,-0.000014,0.474052,0.000528,0.000069,1.083078,1.000000,-0.000019,0.000049,-0.000007,0.000140,-0.000022,0.487436
1790767400.400428,0.002020,-0.000611,-0.001051,-0.003854,-0.008184,10.947410,-0.020108,0.449257,-0.893176,0.000168,-0.000012,0.509378,0.000561,0.000082,1.120009,1.000000,-0.000019,0.000049,-0.000007,0.000140,-0.000022,0.487436
1790767400.404903,0.000825,-0.000757,-0.000403,0.005103,-0.009466,10.948625,-0.020108,0.449257,-0.893176,0.000168,-0.000012,0.509378,0.000561,0.000082,1.120009,1.000000,-0.000019,0.000049,-0.000007,0.000140,-0.000022,0.487436
1790767400.408623,-0.000369,-0.001620,0.002081,0.006156,-0.009767,10.936418,-0.019993,0.449265,-0.893175,0.000168,-0.000012,0.509378,0.000561,0.000082,1.120009,1.000000,-0.000019,0.000049,-0.000007,0.000140,-0.000022,0.487436
1790767400.412753,-0.000805,-0.001156,-0.000468,0.003191,0.002728,10.934657,-0.019993,0.449265,-0.893175,0.000168,-0.000012,0.509378,0.000561,0.000082,1.120009,1.000000,-0.000018,0.000046,-0.000006,0.000153,-0.000020,0.509926
1790767400.416862,-0.000610,0.000738,-0.000382,-0.000842,-0.004926,10.919739,-0.019993,0.449265,-0.893175,0.000168,-0.000012,0.509378,0.000561,0.000082,1.120009,1.000000,-0.000018,0.000046,-0.000006,0.000153,-0.000020,0.509926
1790767400.421509,0.001613,-0.000100,-0.000743,0.012425,0.011991,10.934899,-0.020167,0.449458,-0.893074,0.000168,-0.000012,0.509378,0.000561,0.000082,1.120009,1.000000,-0.000018,0.000046,-0.000006,0.000153,-0.000020,0.509926
1790767400.424980,-0.001817,0.000501,0.001230,0.001896,0.002309,10.914125,-0.020167,0.449458,-0.893074,0.000168,-0.000012,0.509378,0.000561,0.000082,1.120009,1.000000,-0.000018,0.000046,-0.000006,0.000153,-0.000020,0.509926
1790767400.429386,0.000504,0.000175,0.001049,-0.006525,-0.001308,10.907064,-0.020277,0.449460,-0.893070,0.000168,-0.000012,0.509378,0.000561,0.000082,1.120009,1.000000,-0.000018,0.000046,-0.000006,0.000153,-0.000020,0.509926
1790767400.432744,0.000702,-0.001044,0.000820,-0.003708,-0.009861,10.912871,-0.020277,0.449460,-0.893070,0.000186,-0.000009,0.545866,0.000592,0.000095,1.155900,1.000000,-0.000018,0.000043,-0.000006,0.000166,-0.000018,0.532866
1790767400.436506,0.000596,-0.000600,-0.001481,-0.006983,-0.007465,10.913697,-0.020277,0.449460,-0.893070,0.000186,-0.000009,0.545866,0.000592,0.000095,1.155900,1.000000,-0.000018,0.000043,-0.000006,0.000166,-0.000018,0.532866
1790767400.443824,0.001556,-0.000453,-0.000042,0.003262,0.009140,10.904730,-0.020377,0.449186,-0.893206,0.000186,-0.000009,0.545866,0.000592,0.000095,1.155900,1.000000,-0.000018,0.000043,-0.000006,0.000166,-0.000018,0.532866
1790767400.444771,0.001556,-0.000453,-0.000042,0.003262,0.009140,10.904730,-0.020377,0.449186,-0.893206,0.000186,-0.000009,0.545866,0.000592,0.000095,1.155900,1.000000,-0.000018,0.000043,-0.000006,0.000166,-0.000018,0.532866
1790767400.448987,0.000104,-0.000509,-0.000253,0.009551,-0.005224,10.916292,-0.019943,0.449544,-0.893036,0.000186,-0.000009,0.545866,0.000592,0.000095,1.155900,1.000000,-0.000018,0.000043,-0.000006,0.000166,-0.000018,0.532866
1790767400.452925,-0.001322,-0.000087,0.000034,-0.003150,-0.008584,10.918669,-0.019943,0.449544,-0.893036,0.000186,-0.000009,0.545866,0.000592,0.000095,1.155900,1.000000,-0.000018,0.000040,-0.000005,0.000179,-0.000016,0.556251
1790767400.457025,0.001315,0.000937,0.000902,-0.003135,0.001000,10.937150,-0.019943,0.449544,-0.893036,0.000186,-0.000009,0.545866,0.000592,0.000095,1.155900,1.000000,-0.000018,0.000040,-0.000005,0.000179,-0.000016,0.556251
1790767400.460867,0.000070,-0.000826,-0.001425,-0.005968,-0.000954,10.934049,-0.019616,0.449598,-0.893016,0.000186,-0.000009,0.545866,0.000592,0.000095,1.155900,1.000000,-0.000018,0.000040,-0.000005,0.000179,-0.000016,0.556251
1790767400.464957,-0.000331,-0.001342,-0.000064,-0.000819,0.007823,10.943391,-0.019616,0.449598,-0.893016,0.000186,-0.000009,0.545866,0.000592,0.000095,1.155900,1.000000,-0.000018,0.000040,-0.000005,0.000179,-0.000016,0.556251
1790767400.468901,0.000315,-0.000047,0.000697,0.006757,-0.020954,10.950420,-0.020151,0.449616,-0.892995,0.000208,-0.000005,0.588283,0.000622,0.000109,1.196365,1.000000,-0.000018,0.000040,-0.000005,0.000179,-0.000016,0.556251
1790767400.473637,0.000216,-0.001827,0.000392,0.003703,0.008800,10.951028,-0.020151,0.449616,-0.892995,0.000208,-0.000005,0.588283,0.000622,0.000109,1.196365,1.000000,-0.000017,0.000036,-0.000005,0.000193,-0.000013,0.580086
1790767400.477050,0.001490,-0.001074,-0.000489,-0.005537,0.003441,10.960116,-0.020151,0.449616,-0.892995,0.000208,-0.000005,0.588283,0.000622,0.000109,1.196365,1.000000,-0.000017,0.000036,-0.000005,0.000193,-0.000013,0.580086
1790767400.481565,-0.000115,-0.001541,-0.000376,0.003084,0.011062,10.972119,-0.019675,0.449211,-0.893209,0.000208,-0.000005,0.588283,0.000622,0.000109,1.196365,1.000000,-0.000017,0.000036,-0.000005,0.000193,-0.000013,0.580086
1790767400.485126,0.001463,-0.002016,-0.001412,0.002832,0.002992,10.944416,-0.019675,0.449211,-0.893209,0.000208,-0.000005,0.588283,0.000622,0.000109,1.196365,1.000000,-0.000017,0.000036,-0.000005,0.000193,-0.000013,0.580086
1790767400.488781,0.001258,-0.000304,-0.000343,0.001610,0.005160,10.916453,-0.020180,0.449247,-0.893180,0.000208,-0.000005,0.588283,0.000622,0.000109,1.196365,1.000000,-0.000017,0.000036,-0.000005,0.000193,-0.000013,0.580086
1790767400.493204,-0.001807,-0.000155,-0.000938,-0.002788,0.005435,10.905899,-0.020180,0.449247,-0.893180,0.000208,-0.000005,0.588283,0.000622,0.000109,1.196365,1.000000,-0.000016,0.000034,-0.000004,0.000207,-0.000010,0.604381
1790767400.496954,0.000095,-0.000666,0.001734,0.001386,-0.002358,10.903446,-0.020180,0.449247,-0.893180,0.000208,-0.000005,0.588283,0.000622,0.000109,1.196365,1.000000,-0.000016,0.000034,-0.000004,0.000207,-0.000010,0.604381
1790767400.501018,-0.000975,0.001368,0.000167,0.011218,0.005750,10.895022,-0.020256,0.449602,-0.893000,0.000228,-0.000002,0.627224,0.000644,0.000120,1.232546,1.000000,-0.000016,0.000034,-0.000004,0.000207,-0.000010,0.604381
1790767400.504489,-0.000115,-0.000151,0.001270,0.002170,-0.003122,10.887703,-0.020256,0.449602,-0.893000,0.000228,-0.000002,0.627224,0.000644,0.000120,1.232546,1.000000,-0.000016,0.000034,-0.000004,0.000207,-0.000010,0.604381
1790767400.508993,0.000934,-0.000085,0.000180,-0.003481,0.000842,10.875255,-0.019871,0.449585,-0.893017,0.000228,-0.000002,0.627224,0.000644,0.000120,1.232546,1.000000,-0.000016,0.000034,-0.000004,0.000207,-0.000010,0.604381
1790767400.513067,0.000682,0.001666,0.000506,-0.003723,-0.004989,10.878842,-0.019871,0.449585,-0.893017,0.000228,-0.000002,0.627224,0.000644,0.000120,1.232546,1.000000,-0.000015,0.000033,-0.000004,0.000221,-0.000008,0.629119
1790767400.516865,0.001049,-0.000249,-0.000167,-0.003450,0.020119,10.870601,-0.019871,0.449585,-0.893017,0.000228,-0.000002,0.627224,0.000644,0.000120,1.232546,1.000000,-0.000015,0.000033,-0.000004,0.000221,-0.000008,0.629119
1790767400.521806,0.002134,-0.000763,-0.000392,0.002025,-0.001291,10.850368,-0.019987,0.449554,-0.893030,0.000228,-0.000002,0.627224,0.000644,0.000120,1.232546,1.000000,-0.000015,0.000033,-0.000004,0.000221,-0.000008,0.629119
1790767400.525960,-0.001611,-0.001611,0.001330,0.003008,0.015749,10.845962,-0.019987,0.449554,-0.893030,0.000228,-0.000002,0.627224,0.000644,0.000120,1.232546,1.000000,-0.000015,0.000033,-0.000004,0.000221,-0.000008,0.629119
1790767400.528965,-0.000002,0.000259,-0.001605,-0.011940,0.006428,10.837880,-0.019993,0.449459,-0.893077,0.000228,-0.000002,0.627224,0.000644,0.000120,1.232546,1.000000,-0.000015,0.000033,-0.000004,0.000221,-0.000008,0.629119
1790767400.533004,0.000432,-0.001118,-0.000105,-0.000784,-0.013247,10.849809,-0.019993,0.449459,-0.893077,0.000249,0.000002,0.667283,0.000664,0.000130,1.266530,1.000000,-0.000015,0.000031,-0.000004,0.000235,-0.000005,0.654282
1790767400.537033,-0.000687,-0.000687,-0.000043,0.005846,0.000235,10.823488,-0.019993,0.449459,-0.893077,0.000249,0.000002,0.667283,0.000664,0.000130,1.266530,1.000000,-0.000015,0.000031,-0.000004,0.000235,-0.000005,0.654282
1790767400.541672,-0.001035,0.000317,-0.002170,0.005921,0.009343,10.838134,-0.020278,0.449493,-0.893053,0.000249,0.000002,0.667283,0.000664,0.000130,1.266530,1.000000,-0.000015,0.000031,-0.000004,0.000235,-0.000005,0.654282
1790767400.544940,-0.000753,0.000402,0.002121,-0.001021,0.002040,10.831956,-0.020278,0.449493,-0.893053,0.000249,0.000002,0.667283,0.000664,0.000130,1.266530,1.000000,-0.000015,0.000031,-0.000004,0.000235,-0.000005,0.654282
1790767400.548468,0.001180,-0.000310,-0.000320,-0.001073,0.008149,10.820035,-0.019987,0.449611,-0.893001,0.000249,0.000002,0.667283,0.000664,0.000130,1.266530,1.000000,-0.000015,0.000031,-0.000004,0.000235,-0.000005,0.654282
1790767400.552524,0.000348,0.001196,0.000867,0.005310,0.003016,10.802762,-0.019987,0.449611,-0.893001,0.000249,0.000002,0.667283,0.000664,0.000130,1.266530,1.000000,-0.000016,0.000029,-0.000003,0.000249,-0.000002,0.679859
1790767400.556455,0.000588,-0.001104,0.000532,-0.003235,0.000362,10.802142,-0.019987,0.449611,-0.893001,0.000249,0.000002,0.667283,0.000664,0.000130,1.266530,1.000000,-0.000016,0.000029,-0.000003,0.000249,-0.000002,0.679859
1790767400.560592,0.000410,-0.001509,-0.000593,-0.003551,-0.007299,10.799227,-0.020257,0.449619,-0.892990,0.000249,0.000002,0.667283,0.000664,0.000130,1.266530,1.000000,-0.000016,0.000029,-0.000003,0.000249,-0.000002,0.679859
1790767400.564687,0.000092,0.000255,0.000123,0.003751,-0.006270,10.778573,-0.020257,0.449619,-0.892990,0.000271,0.000007,0.708399,0.000683,0.000140,1.298920,1.000000,-0.000016,0.000029,-0.000003,0.000249,-0.000002,0.679859
1790767400.568715,-0.000867,-0.000871,0.000442,-0.001345,-0.002521,10.797091,-0.020030,0.449892,-0.892858,0.000271,0.000007,0.708399,0.000683,0.000140,1.298920,1.000000,-0.000016,0.000029,-0.000003,0.000249,-0.000002,0.679859
1790767400.572680,0.000620,-0.000683,0.000249,-0.004759,-0.004188,10.776728,-0.020030,0.449892,-0.892858,0.000271,0.000007,0.708399,0.000683,0.000140,1.298920,1.000000,-0.000017,0.000026,-0.000003,0.000264,-0.000000,0.705837
1790767400.576808,0.001062,0.000124,0.000402,-0.006174,0.003388,10.772568,-0.020030,0.449892,-0.892858,0.000271,0.000007,0.708399,0.000683,0.000140,1.298920,1.000000,-0.000017,0.000026,-0.000003,0.000264,-0.000000,0.705837
1790767400.580697,-0.000479,-0.001398,-0.000435,-0.003937,-0.002292,10.777078,-0.019674,0.449093,-0.893268,0.000271,0.000007,0.708399,0.000683,0.000140,1.298920,1.000000,-0.000017,0.000026,-0.000003,0.000264,-0.000000,0.705837
1790767400.584575,-0.000326,-0.000472,0.000063,0.002170,0.010961,10.744531,-0.019674,0.449093,-0.893268,0.000271,0.000007,0.708399,0.000683,0.000140,1.298920,1.000000,-0.000017,0.000026,-0.000003,0.000264,-0.000000,0.705837
1790767400.588595,-0.000050,0.000390,-0.000125,-0.006641,0.005638,10.762781,-0.020058,0.449336,-0.893138,0.000271,0.000007,0.708399,0.000683,0.000140,1.298920,1.000000,-0.000017,0.000026,-0.000003,0.000264,-0.000000,0.705837
1790767400.592627,0.001131,-0.000315,-0.000342,0.000695,-0.004054,10.752100,-0.020058,0.449336,-0.893138,0.000271,0.000007,0.708399,0.000683,0.000140,1.298920,1.000000,-0.000018,0.000023,-0.000003,0.000279,0.000002,0.732206
1790767400.596465,-0.000289,-0.000605,-0.000233,0.006901,-0.008567,10.732461,-0.020058,0.449336,-0.893138,0.000271,0.000007,0.708399,0.000683,0.000140,1.298920,1.000000,-0.000018,0.000023,-0.000003,0.000279,0.000002,0.732206
1790767400.601209,0.000479,0.000285,-0.000392,0.001490,0.004116,10.744261,-0.020237,0.449882,-0.892859,0.000295,0.000012,0.755860,0.000699,0.000153,1.333595,1.000000,-0.000018,0.000023,-0.000003,0.000279,0.000002,0.732206
1790767400.606353,-0.000078,0.000853,-0.001492,0.000058,-0.004384,10.743742,-0.020237,0.449882,-0.892859,0.000295,0.000012,0.755860,0.000699,0.000153,1.333595,1.000000,-0.000018,0.000023,-0.000003,0.000279,0.000002,0.732206
1790767400.608984,0.000044,-0.001132,0.000725,0.003801,-0.001230,10.736320,-0.019998,0.449996,-0.892806,0.000295,0.000012,0.755860,0.000699,0.000153,1.333595,1.000000,-0.000018,0.000023,-0.000003,0.000279,0.000002,0.732206
1790767400.612641,0.001410,-0.000432,0.001283,0.010168,0.004575,10.714583,-0.019998,0.449996,-0.892806,0.000295,0.000012,0.755860,0.000699,0.000153,1.333595,1.000000,-0.000020,0.000020,-0.000002,0.000295,0.000004,0.758952
1790767400.616374,0.000800,-0.000719,-0.000902,-0.002010,0.007118,10.737804,-0.019998,0.449996,-0.892806,0.000295,0.000012,0.755860,0.000699,0.000153,1.333595,1.000000,-0.000020,0.000020,-0.000002,0.000295,0.000004,0.758952
1790767400.620583,0.000308,-0.001442,-0.001347,-0.011759,-0.000532,10.758430,-0.020020,0.449611,-0.893000,0.000295,0.000012,0.755860,0.000699,0.000153,1.333595,1.000000,-0.000020,0.000020,-0.000002,0.000295,0.000004,0.758952
1790767400.625008,-0.001654,-0.000142,-0.000507,-0.001303,-0.001388,10.754489,-0.020020,0.449611,-0.893000,0.000295,0.000012,0.755860,0.000699,0.000153,1.333595,1.000000,-0.000020,0.000020,-0.000002,0.000295,0.000004,0.758952
1790767400.628714,-0.000515,-0.000071,0.000497,-0.004454,-0.008855,10.749710,-0.020500,0.449271,-0.893160,0.000295,0.000012,0.755860,0.000699,0.000153,1.333595,1.000000,-0.000020,0.000020,-0.000002,0.000295,0.000004,0.758952
1790767400.633050,0.000099,-0.000120,0.000764,-0.010547,-0.006392,10.770373,-0.020500,0.449271,-0.893160,0.000318,0.000017,0.799076,0.000710,0.000167,1.363856,1.000000,-0.000023,0.000018,-0.000002,0.000310,0.000006,0.786076
1790767400.636357,-0.000678,0.000315,0.000342,0.001370,-0.007091,10.753813,-0.020500,0.449271,-0.893160,0.000318,0.000017,0.799076,0.000710,0.000167,1.363856,1.000000,-0.000023,0.000018,-0.000002,0.000310,0.000006,0.786076
1790767400.640896,-0.000365,0.000767,-0.000344,-0.004167,-0.004746,10.755508,-0.019834,0.449378,-0.893122,0.000318,0.000017,0.799076,0.000710,0.000167,1.363856,1.000000,-0.000023,0.000018,-0.000002,0.000310,0.000006,0.786076
1790767400.644767,0.000148,0.001503,0.000272,-0.011759,0.001527,10.768819,-0.019834,0.449378,-0.893122,0.000318,0.000017,0.799076,0.000710,0.000167,1.363856,1.000000,-0.000023,0.000018,-0.000002,0.000310,0.000006,0.786076
1790767400.648621,-0.001169,0.000254,0.001245,0.005693,0.003237,10.773523,-0.019962,0.449569,-0.893023,0.000318,0.000017,0.799076,0.000710,0.000167,1.363856,1.000000,-0.000023,0.000018,-0.000002,0.000310,0.000006,0.786076
1790767400.652734,0.000196,0.002009,0.000299,-0.003701,0.000202,10.762746,-0.019962,0.449569,-0.893023,0.000318,0.000017,0.799076,0.000710,0.000167,1.363856,1.000000,-0.000026,0.000017,-0.000002,0.000325,0.000008,0.813585
1790767400.657914,0.000197,-0.000337,0.000294,-0.002890,0.007415,10.773558,-0.019962,0.449569,-0.893023,0.000318,0.000017,0.799076,0.000710,0.000167,1.363856,1.000000,-0.000026,0.000017,-0.000002,0.000325,0.000008,0.813585
1790767400.660912,-0.000359,-0.000690,0.000378,0.004151,-0.004211,10.737723,-0.020034,0.449393,-0.893110,0.000318,0.000017,0.799076,0.000710,0.000167,1.363856,1.000000,-0.000026,0.000017,-0.000002,0.000325,0.000008,0.813585
1790767400.664831,0.000424,0.000681,-0.001498,0.004457,0.002343,10.719778,-0.020034,0.449393,-0.893110,0.000341,0.000023,0.843275,0.000720,0.000184,1.394521,1.000000,-0.000026,0.000017,-0.000002,0.000325,0.000008,0.813585
1790767400.668821,0.001232,-0.000275,0.000888,-0.002910,0.010564,10.713560,-0.020160,0.449680,-0.892962,0.000341,0.000023,0.843275,0.000720,0.000184,1.394521,1.000000,-0.000026,0.000017,-0.000002,0.000325,0.000008,0.813585
1790767400.672838,0.000397,-0.001627,0.001534,0.005583,0.005620,10.707148,-0.020160,0.449680,-0.892962,0.000341,0.000023,0.843275,0.000720,0.000184,1.394521,1.000000,-0.000029,0.000015,-0.000002,0.000340,0.000011,0.841474
1790767400.677211,-0.000389,0.000058,0.000317,-0.001657,0.006316,10.692165,-0.020160,0.449680,-0.892962,0.000341,0.000023,0.843275,0.000720,0.000184,1.394521,1.000000,-0.000029,0.000015,-0.000002,0.000340,0.000011,0.841474
1790767400.680519,0.000041,0.000480,0.000816,-0.000243,0.000829,10.692317,-0.020105,0.449416,-0.893096,0.000341,0.000023,0.843275,0.000720,0.000184,1.394521,1.000000,-0.000029,0.000015,-0.000002,0.000340,0.000011,0.841474
1790767400.684941,0.000826,0.000027,-0.000363,-0.002405,-0.011039,10.672703,-0.020105,0.449416,-0.893096,0.000341,0.000023,0.843275,0.000720,0.000184,1.394521,1.000000,-0.000029,0.000015,-0.000002,0.000340,0.000011,0.841474
1790767400.688583,-0.000649,-0.000705,-0.000036,-0.004863,-0.007397,10.662902,-0.020098,0.449663,-0.892972,0.000341,0.000023,0.843275,0.000720,0.000184,1.394521,1.000000,-0.000029,0.000015,-0.000002,0.000340,0.000011,0.841474
1790767400.695934,-0.000672,-0.001135,0.000897,0.011834,0.000353,10.632988,-0.020098,0.449663,-0.892972,0.000341,0.000023,0.843275,0.000720,0.000184,1.394521,1.000000,-0.000030,0.000013,-0.000002,0.000356,0.000014,0.869721
1790767400.696977,-0.000672,-0.001135,0.000897,0.011834,0.000353,10.632988,-0.020098,0.449663,-0.892972,0.000364,0.000029,0.888412,0.000727,0.000203,1.422657,1.000000,-0.000030,0.000013,-0.000002,0.000356,0.000014,0.869721
1790767400.701039,0.001047,0.000049,0.001036,-0.005593,-0.009069,10.647087,-0.020282,0.449596,-0.893001,0.000364,0.000029,0.888412,0.000727,0.000203,1.422657,1.000000,-0.000030,0.000013,-0.000002,0.000356,0.000014,0.869721
1790767400.704975,-0.000801,-0.000124,0.000130,-0.004400,0.007963,10.635124,-0.020282,0.449596,-0.893001,0.000364,0.000029,0.888412,0.000727,0.000203,1.422657,1.000000,-0.000030,0.000013,-0.000002,0.000356,0.000014,0.869721
1790767400.709141,-0.000721,0.001013,-0.000069,0.006748,0.005694,10.625316,-0.019722,0.449367,-0.893129,0.000364,0.000029,0.888412,0.000727,0.000203,1.422657,1.000000,-0.000030,0.000013,-0.000002,0.000356,0.000014,0.869721
1790767400.712879,-0.000491,-0.001701,-0.000004,-0.001674,-0.002443,10.609453,-0.019722,0.449367,-0.893129,0.000364,0.000029,0.888412,0.000727,0.000203,1.422657,1.000000,-0.000032,0.000010,-0.000002,0.000372,0.000017,0.898308
1790767400.717092,-0.000223,0.000122,-0.000127,-0.014501,-0.004717,10.610132,-0.019722,0.449367,-0.893129,0.000364,0.000029,0.888412,0.000727,0.000203,1.422657,1.000000,-0.000032,0.000010,-0.000002,0.000372,0.000017,0.898308
1790767400.721042,0.000133,-0.001321,-0.000643,0.000663,-0.008772,10.595793,-0.020095,0.449507,-0.893051,0.000364,0.000029,0.888412,0.000727,0.000203,1.422657,1.000000,-0.000032,0.000010,-0.000002,0.000372,0.000017,0.898308
1790767400.724972,0.000538,0.000238,0.000074,-0.004628,0.000496,10.585372,-0.020095,0.449507,-0.893051,0.000364,0.000029,0.888412,0.000727,0.000203,1.422657,1.000000,-0.000032,0.000010,-0.000002,0.000372,0.000017,0.898308
1790767400.729125,0.000978,-0.000234,-0.000728,-0.002808,0.002542,10.593119,-0.020227,0.449382,-0.893111,0.000364,0.000029,0.888412,0.000727,0.000203,1.422657,1.000000,-0.000032,0.000010,-0.000002,0.000372,0.000017,0.898308
1790767400.732541,0.000996,0.000914,-0.001077,-0.006427,0.011646,10.578995,-0.020227,0.449382,-0.893111,0.000390,0.000037,0.940219,0.000732,0.000227,1.451861,1.000000,-0.000032,0.000007,-0.000003,0.000388,0.000021,0.927219
1790767400.736101,-0.000926,0.000413,0.000920,0.000102,0.014220,10.578971,-0.020227,0.449382,-0.893111,0.000390,0.000037,0.940219,0.000732,0.000227,1.451861,1.000000,-0.000032,0.000007,-0.000003,0.000388,0.000021,0.927219
1790767400.740997,-0.000704,0.000172,0.001361,0.005454,0.002124,10.568868,-0.020023,0.449474,-0.893069,0.000390,0.000037,0.940219,0.000732,0.000227,1.451861,1.000000,-0.000032,0.000007,-0.000003,0.000388,0.000021,0.927219
1790767400.744650,-0.000012,-0.000579,0.000301,0.008887,-0.001979,10.567067,-0.020023,0.449474,-0.893069,0.000390,0.000037,0.940219,0.000732,0.000227,1.451861,1.000000,-0.000032,0.000007,-0.000003,0.000388,0.000021,0.927219
1790767400.748311,0.000497,0.001332,-0.000938,-0.003792,-0.001433,10.553208,-0.019794,0.449630,-0.892996,0.000390,0.000037,0.940219,0.000732,0.000227,1.451861,1.000000,-0.000032,0.000007,-0.000003,0.000388,0.000021,0.927219
1790767400.752370,0.000944,-0.001158,-0.000824,-0.003287,-0.004904,10.551714,-0.019794,0.449630,-0.892996,0.000390,0.000037,0.940219,0.000732,0.000227,1.451861,1.000000,-0.000032,0.000004,-0.000003,0.000404,0.000026,0.956439
1790767400.756745,-0.001405,-0.000339,-0.000042,-0.012403,-0.002146,10.565016,-0.019794,0.449630,-0.892996,0.000390,0.000037,0.940219,0.000732,0.000227,1.451861,1.000000,-0.000032,0.000004,-0.000003,0.000404,0.000026,0.956439
1790767400.760666,0.000776,-0.000637,-0.000467,-0.010328,-0.004633,10.570531,-0.020132,0.449678,-0.892964,0.000390,0.000037,0.940219,0.000732,0.000227,1.451861,1.000000,-0.000032,0.000004,-0.000003,0.000404,0.000026,0.956439
1790767400.764893,0.000603,-0.000164,-0.001101,-0.004681,-0.008604,10.577625,-0.020132,0.449678,-0.892964,0.000413,0.000044,0.987119,0.000733,0.000249,1.476359,1.000000,-0.000032,0.000004,-0.000003,0.000404,0.000026,0.956439
1790767400.768682,0.000692,0.000457,0.000256,0.011121,0.001505,10.594592,-0.019794,0.449091,-0.893267,0.000413,0.000044,0.987119,0.000733,0.000249,1.476359,1.000000,-0.000032,0.000004,-0.000003,0.000404,0.000026,0.956439
1790767400.772603,-0.000049,-0.001694,-0.000276,-0.000022,0.008598,10.587796,-0.019794,0.449091,-0.893267,0.000413,0.000044,0.987119,0.000733,0.000249,1.476359,1.000000,-0.000032,-0.000001,-0.000003,0.000421,0.000031,0.985967
1790767400.777860,0.001305,-0.000753,-0.000317,0.009524,-0.001476,10.582069,-0.019794,0.449091,-0.893267,0.000413,0.000044,0.987119,0.000733,0.000249,1.476359,1.000000,-0.000032,-0.000001,-0.000003,0.000421,0.000031,0.985967
1790767400.780732,0.000878,-0.000230,-0.000010,0.003464,-0.009363,10.584903,-0.020005,0.449409,-0.893102,0.000413,0.000044,0.987119,0.000733,0.000249,1.476359,1.000000,-0.000032,-0.000001,-0.000003,0.000421,0.000031,0.985967
1790767400.784271,-0.000963,-0.000930,0.000820,0.001066,0.002651,10.578674,-0.020005,0.449409,-0.893102,0.000413,0.000044,0.987119,0.000733,0.000249,1.476359,1.000000,-0.000032,-0.000001,-0.000003,0.000421,0.000031,0.985967
1790767400.788206,0.000700,-0.000571,0.000612,0.011968,0.006045,10.580506,-0.019952,0.449473,-0.893071,0.000413,0.000044,0.987119,0.000733,0.000249,1.476359,1.000000,-0.000032,-0.000001,-0.000003,0.000421,0.000031,0.985967
1790767400.792848,0.001830,-0.001202,0.000492,-0.000537,0.001172,10.584127,-0.019952,0.449473,-0.893071,0.000413,0.000044,0.987119,0.000733,0.000249,1.476359,1.000000,-0.000032,-0.000005,-0.000004,0.000438,0.000036,1.015809
1790767400.796492,0.000319,0.000126,-0.000816,0.008229,-0.010208,10.588123,-0.019952,0.449473,-0.893071,0.000437,0.000053,1.034815,0.000728,0.000270,1.501527,1.000000,-0.000032,-0.000005,-0.000004,0.000438,0.000036,1.015809
1790767400.800315,0.000387,0.000167,-0.000745,0.008192,-0.005528,10.588889,-0.019796,0.449484,-0.893069,0.000437,0.000053,1.034815,0.000728,0.000270,1.501527,1.000000,-0.000032,-0.000005,-0.000004,0.000438,0.000036,1.015809
1790767400.804002,0.000173,-0.000832,-0.000245,-0.003705,0.013145,10.574327,-0.019796,0.449484,-0.893069,0.000437,0.000053,1.034815,0.000728,0.000270,1.501527,1.000000,-0.000032,-0.000005,-0.000004,0.000438,0.000036,1.015809
1790767400.808710,0.001201,-0.000711,-0.000530,-0.002265,-0.000127,10.538385,-0.020225,0.449777,-0.892912,0.000437,0.000053,1.034815,0.000728,0.000270,1.501527,1.000000,-0.000032,-0.000005,-0.000004,0.000438,0.000036,1.015809
1790767400.812475,-0.000477,-0.000384,-0.001596,-0.000632,0.000992,10.528895,-0.020225,0.449777,-0.892912,0.000437,0.000053,1.034815,0.000728,0.000270,1.501527,1.000000,-0.000032,-0.000008,-0.000004,0.000454,0.000042,1.045962
1790767400.816226,-0.000064,0.001566,0.000529,-0.006731,-0.011927,10.509264,-0.020225,0.449777,-0.892912,0.000437,0.000053,1.034815,0.000728,0.000270,1.501527,1.000000,-0.000032,-0.000008,-0.000004,0.000454,0.000042,1.045962
1790767400.820520,-0.000976,0.001484,0.000333,-0.000855,-0.002686,10.516758,-0.020418,0.449536,-0.893029,0.000437,0.000053,1.034815,0.000728,0.000270,1.501527,1.000000,-0.000032,-0.000008,-0.000004,0.000454,0.000042,1.045962
1790767400.824440,-0.000582,0.000503,-0.000676,0.004160,-0.014024,10.505269,-0.020418,0.449536,-0.893029,0.000437,0.000053,1.034815,0.000728,0.000270,1.501527,1.000000,-0.000032,-0.000008,-0.000004,0.000454,0.000042,1.045962
1790767400.828679,0.000683,0.000085,-0.000819,0.004241,0.001051,10.482445,-0.020269,0.449677,-0.892961,0.000460,0.000062,1.083294,0.000719,0.000291,1.524875,1.000000,-0.000032,-0.000008,-0.000004,0.000454,0.000042,1.045962
1790767400.832492,0.001010,0.001743,0.000061,-0.001615,-0.007972,10.475740,-0.020269,0.449677,-0.892961,0.000460,0.000062,1.083294,0.000719,0.000291,1.524875,1.000000,-0.000033,-0.000011,-0.000003,0.000469,0.000047,1.076404
1790767400.836724,0.000199,0.000116,0.000532,0.004733,-0.008105,10.458490,-0.020269,0.449677,-0.892961,0.000460,0.000062,1.083294,0.000719,0.000291,1.524875,1.000000,-0.000033,-0.000011,-0.000003,0.000469,0.000047,1.076404
1790767400.840837,0.000381,-0.001766,0.000676,0.007252,-0.000619,10.454311,-0.019813,0.449429,-0.893096,0.000460,0.000062,1.083294,0.000719,0.000291,1.524875,1.000000,-0.000033,-0.000011,-0.000003,0.000469,0.000047,1.076404
1790767400.845974,0.001452,-0.001131,0.001915,-0.006227,0.003092,10.433940,-0.019813,0.449429,-0.893096,0.000460,0.000062,1.083294,0.000719,0.000291,1.524875,1.000000,-0.000033,-0.000011,-0.000003,0.000469,0.000047,1.076404
1790767400.849911,0.000581,-0.002330,0.000985,0.000871,-0.005989,10.440046,-0.020254,0.449570,-0.893015,0.000460,0.000062,1.083294,0.000719,0.000291,1.524875,1.000000,-0.000033,-0.000011,-0.000003,0.000469,0.000047,1.076404
1790767400.852760,0.000965,-0.000709,0.002109,-0.004841,0.002654,10.430993,-0.020254,0.449570,-0.893015,0.000460,0.000062,1.083294,0.000719,0.000291,1.524875,1.000000,-0.000033,-0.000015,-0.000003,0.000485,0.000053,1.107112
1790767400.856855,-0.000041,-0.001272,-0.000007,0.000518,0.008087,10.430222,-0.020254,0.449570,-0.893015,0.000460,0.000062,1.083294,0.000719,0.000291,1.524875,1.000000,-0.000033,-0.000015,-0.000003,0.000485,0.000053,1.107112
1790767400.860768,0.000165,-0.000387,-0.001494,0.003005,-0.006224,10.410554,-0.020051,0.449748,-0.892930,0.000460,0.000062,1.083294,0.000719,0.000291,1.524875,1.000000,-0.000033,-0.000015,-0.000003,0.000485,0.000053,1.107112
1790767400.865261,-0.000895,-0.000689,0.000553,-0.006712,0.008246,10.406581,-0.020051,0.449748,-0.892930,0.000485,0.000073,1.138657,0.000706,0.000314,1.547849,1.000000,-0.000033,-0.000015,-0.000003,0.000485,0.000053,1.107112
1790767400.868649,0.000210,-0.001462,-0.001832,0.007679,-0.004157,10.397531,-0.020546,0.449605,-0.892991,0.000485,0.000073,1.138657,0.000706,0.000314,1.547849,1.000000,-0.000033,-0.000015,-0.000003,0.000485,0.000053,1.107112
1790767400.872271,0.001067,0.000294,0.000027,-0.006212,-0.004783,10.392306,-0.020546,0.449605,-0.892991,0.000485,0.000073,1.138657,0.000706,0.000314,1.547849,1.000000,-0.000033,-0.000019,-0.000003,0.000501,0.000059,1.138068
1790767400.876713,-0.000005,-0.000706,-0.000885,-0.003995,0.009737,10.381814,-0.020546,0.449605,-0.892991,0.000485,0.000073,1.138657,0.000706,0.000314,1.547849,1.000000,-0.000033,-0.000019,-0.000003,0.000501,0.000059,1.138068
1790767400.880692,0.001137,0.000788,0.000582,-0.000132,0.003212,10.368076,-0.019919,0.449314,-0.893152,0.000485,0.000073,1.138657,0.000706,0.000314,1.547849,1.000000,-0.000033,-0.000019,-0.000003,0.000501,0.000059,1.138068
1790767400.884106,-0.001911,-0.000159,-0.001300,-0.004759,-0.003199,10.364137,-0.019919,0.449314,-0.893152,0.000485,0.000073,1.138657,0.000706,0.000314,1.547849,1.000000,-0.000033,-0.000019,-0.000003,0.000501,0.000059,1.138068
1790767400.888164,-0.000204,-0.000517,-0.000648,-0.000741,0.001448,10.368598,-0.020157,0.449675,-0.892965,0.000485,0.000073,1.138657,0.000706,0.000314,1.547849,1.000000,-0.000033,-0.000019,-0.000003,0.000501,0.000059,1.138068
1790767400.892659,-0.000080,-0.000549,-0.000476,-0.011270,-0.003109,10.352521,-0.020157,0.449675,-0.892965,0.000485,0.000073,1.138657,0.000706,0.000314,1.547849,1.000000,-0.000033,-0.000022,-0.000003,0.000517,0.000066,1.169257
1790767400.896678,-0.000027,-0.000540,-0.001164,0.001806,-0.000821,10.334037,-0.020157,0.449675,-0.892965,0.000508,0.000083,1.188522,0.000690,0.000336,1.566105,1.000000,-0.000033,-0.000022,-0.000003,0.000517,0.000066,1.169257
1790767400.900115,-0.000636,-0.000903,-0.000539,0.007257,0.005757,10.331368,-0.019666,0.449628,-0.892999,0.000508,0.000083,1.188522,0.000690,0.000336,1.566105,1.000000,-0.000033,-0.000022,-0.000003,0.000517,0.000066,1.169257
1790767400.903882,0.000764,0.000152,0.000744,0.000218,-0.009101,10.335225,-0.019666,0.449628,-0.892999,0.000508,0.000083,1.188522,0.000690,0.000336,1.566105,1.000000,-0.000033,-0.000022,-0.000003,0.000517,0.000066,1.169257
1790767400.909657,0.001333,-0.000565,-0.000036,0.012417,-0.000503,10.318906,-0.020146,0.449416,-0.893095,0.000508,0.000083,1.188522,0.000690,0.000336,1.566105,1.000000,-0.000033,-0.000022,-0.000003,0.000517,0.000066,1.169257
1790767400.912638,0.001131,-0.000535,0.000458,-0.000941,0.009924,10.311363,-0.020146,0.449416,-0.893095,0.000508,0.000083,1.188522,0.000690,0.000336,1.566105,1.000000,-0.000033,-0.000025,-0.000003,0.000532,0.000073,1.200663
1790767400.916078,0.000125,0.001478,-0.000111,0.001806,0.003581,10.291724,-0.020146,0.449416,-0.893095,0.000508,0.000083,1.188522,0.000690,0.000336,1.566105,1.000000,-0.000033,-0.000025,-0.000003,0.000532,0.000073,1.200663
1790767400.920265,-0.000287,0.000256,0.000765,0.006628,-0.004855,10.291829,-0.020123,0.449962,-0.892821,0.000508,0.000083,1.188522,0.000690,0.000336,1.566105,1.000000,-0.000033,-0.000025,-0.000003,0.000532,0.000073,1.200663
1790767400.924675,-0.001211,0.000287,0.001227,-0.006891,-0.012247,10.289315,-0.020123,0.449962,-0.892821,0.000508,0.000083,1.188522,0.000690,0.000336,1.566105,1.000000,-0.000033,-0.000025,-0.000003,0.000532,0.000073,1.200663
1790767400.928288,0.001863,-0.000143,-0.000761,0.003124,-0.003532,10.287773,-0.020033,0.449796,-0.892907,0.000529,0.000094,1.238935,0.000672,0.000357,1.582366,1.000000,-0.000033,-0.000025,-0.000003,0.000532,0.000073,1.200663
1790767400.932294,0.001541,0.000107,0.000841,0.005814,-0.001336,10.275794,-0.020033,0.449796,-0.892907,0.000529,0.000094,1.238935,0.000672,0.000357,1.582366,1.000000,-0.000032,-0.000027,-0.000003,0.000547,0.000080,1.232272
1790767400.936095,-0.000353,-0.001005,0.000803,-0.009787,-0.002609,10.281499,-0.020033,0.449796,-0.892907,0.000529,0.000094,1.238935,0.000672,0.000357,1.582366,1.000000,-0.000032,-0.000027,-0.000003,0.000547,0.000080,1.232272
1790767400.940559,-0.000354,0.000960,-0.000467,-0.001565,0.010227,10.261878,-0.020070,0.449753,-0.892927,0.000529,0.000094,1.238935,0.000672,0.000357,1.582366,1.000000,-0.000032,-0.000027,-0.000003,0.000547,0.000080,1.232272
1790767400.944665,-0.000286,-0.000892,-0.000658,-0.009942,0.010215,10.270027,-0.020070,0.449753,-0.892927,0.000529,0.000094,1.238935,0.000672,0.000357,1.582366,1.000000,-0.000032,-0.000027,-0.000003,0.000547,0.000080,1.232272
1790767400.948734,-0.000743,-0.001072,0.000137,-0.005797,0.002000,10.274339,-0.019788,0.449652,-0.892984,0.000529,0.000094,1.238935,0.000672,0.000357,1.582366,1.000000,-0.000032,-0.000027,-0.000003,0.000547,0.000080,1.232272
1790767400.952193,-0.000204,-0.000253,0.000800,0.006595,-0.006388,10.306143,-0.019788,0.449652,-0.892984,0.000529,0.000094,1.238935,0.000672,0.000357,1.582366,1.000000,-0.000031,-0.000031,-0.000003,0.000562,0.000088,1.264071
1790767400.956331,0.000777,0.001105,-0.000449,0.002404,0.001077,10.282406,-0.019788,0.449652,-0.892984,0.000529,0.000094,1.238935,0.000672,0.000357,1.582366,1.000000,-0.000031,-0.000031,-0.000003,0.000562,0.000088,1.264071
1790767400.960819,0.000258,0.000266,0.000093,-0.009318,0.005033,10.298437,-0.020158,0.449827,-0.892888,0.000550,0.000106,1.289846,0.000649,0.000377,1.597848,1.000000,-0.000031,-0.000031,-0.000003,0.000562,0.000088,1.264071
1790767400.964114,-0.001184,-0.000163,0.000994,-0.000490,0.009776,10.312493,-0.020158,0.449827,-0.892888,0.000550,0.000106,1.289846,0.000649,0.000377,1.597848,1.000000,-0.000031,-0.000031,-0.000003,0.000562,0.000088,1.264071
1790767400.968224,0.000195,0.000569,-0.001058,0.000931,-0.001237,10.306209,-0.020231,0.449595,-0.893003,0.000550,0.000106,1.289846,0.000649,0.000377,1.597848,1.000000,-0.000031,-0.000031,-0.000003,0.000562,0.000088,1.264071
1790767400.972267,0.001539,-0.000010,-0.000711,0.000993,0.000169,10.310590,-0.020231,0.449595,-0.893003,0.000550,0.000106,1.289846,0.000649,0.000377,1.597848,1.000000,-0.000029,-0.000036,-0.000002,0.000577,0.000097,1.296069
1790767400.976189,0.000073,0.000206,0.000024,-0.007923,0.007234,10.313291,-0.020231,0.449595,-0.893003,0.000550,0.000106,1.289846,0.000649,0.000377,1.597848,1.000000,-0.000029,-0.000036,-0.000002,0.000577,0.000097,1.296069
1790767400.980293,0.000256,-0.002022,-0.000774,0.004970,-0.012171,10.292992,-0.020288,0.449538,-0.893031,0.000550,0.000106,1.289846,0.000649,0.000377,1.597848,1.000000,-0.000029,-0.000036,-0.000002,0.000577,0.000097,1.296069
1790767400.984133,0.001170,-0.001348,-0.001426,-0.007535,0.004040,10.265172,-0.020288,0.449538,-0.893031,0.000550,0.000106,1.289846,0.000649,0.000377,1.597848,1.000000,-0.000029,-0.000036,-0.000002,0.000577,0.000097,1.296069
1790767400.988537,0.000814,-0.000498,-0.000935,-0.004706,0.002350,10.241915,-0.020129,0.449674,-0.892966,0.000550,0.000106,1.289846,0.000649,0.000377,1.597848,1.000000,-0.000029,-0.000036,-0.000002,0.000577,0.000097,1.296069
1790767400.993372,-0.001036,0.001018,-0.000255,0.003949,-0.007274,10.239002,-0.020129,0.449674,-0.892966,0.000550,0.000106,1.289846,0.000649,0.000377,1.597848,1.000000,-0.000026,-0.000040,-0.000002,0.000592,0.000106,1.328264
1790767400.996396,0.000054,-0.000965,0.000202,0.009751,0.014384,10.224224,-0.020129,0.449674,-0.892966,0.000573,0.000120,1.347725,0.000619,0.000396,1.615094,1.000000,-0.000026,-0.000040,-0.000002,0.000592,0.000106,1.328264
1790767401.000529,0.000095,0.000657,0.000717,0.001139,-0.004743,10.220274,-0.020313,0.449412,-0.893094,0.000573,0.000120,1.347725,0.000619,0.000396,1.615094,1.000000,-0.000026,-0.000040,-0.000002,0.000592,0.000106,1.328264
1790767401.004173,0.000303,0.001296,0.002172,0.004259,0.001113,10.199134,-0.020313,0.449412,-0.893094,0.000573,0.000120,1.347725,0.000619,0.000396,1.615094,1.000000,-0.000026,-0.000040,-0.000002,0.000592,0.000106,1.328264
1790767401.008707,0.000601,0.001340,0.000263,0.004533,-0.009621,10.190239,-0.019691,0.449465,-0.893081,0.000573,0.000120,1.347725,0.000619,0.000396,1.615094,1.000000,-0.000026,-0.000040,-0.000002,0.000592,0.000106,1.328264
1790767401.012094,-0.000996,-0.000545,-0.000244,0.003980,-0.009038,10.177677,-0.019691,0.449465,-0.893081,0.000573,0.000120,1.347725,0.000619,0.000396,1.615094,1.000000,-0.000023,-0.000044,-0.000001,0.000606,0.000116,1.360631
1790767401.016655,0.000084,-0.001018,-0.000173,0.004268,0.014920,10.163321,-0.019691,0.449465,-0.893081,0.000573,0.000120,1.347725,0.000619,0.000396,1.615094,1.000000,-0.000023,-0.000044,-0.000001,0.000606,0.000116,1.360631
1790767401.021020,-0.000381,-0.000368,0.000217,-0.001881,-0.002832,10.157234,-0.019956,0.449682,-0.892966,0.000573,0.000120,1.347725,0.000619,0.000396,1.615094,1.000000,-0.000023,-0.000044,-0.000001,0.000606,0.000116,1.360631
1790767401.025375,0.000849,0.001675,-0.000299,-0.004213,0.007821,10.139043,-0.019956,0.449682,-0.892966,0.000573,0.000120,1.347725,0.000619,0.000396,1.615094,1.000000,-0.000023,-0.000044,-0.000001,0.000606,0.000116,1.360631
1790767401.028882,0.001349,-0.000690,-0.000020,-0.008913,-0.012696,10.129620,-0.020504,0.449734,-0.892927,0.000592,0.000133,1.399632,0.000588,0.000410,1.627143,1.000000,-0.000023,-0.000044,-0.000001,0.000606,0.000116,1.360631
1790767401.032398,-0.002085,-0.000335,0.000912,0.001153,0.004361,10.132994,-0.020504,0.449734,-0.892927,0.000592,0.000133,1.399632,0.000588,0.000410,1.627143,1.000000,-0.000020,-0.000048,-0.000001,0.000619,0.000125,1.393146
1790767401.036320,-0.000638,-0.001277,-0.001357,0.000107,-0.001545,10.119002,-0.020504,0.449734,-0.892927,0.000592,0.000133,1.399632,0.000588,0.000410,1.627143,1.000000,-0.000020,-0.000048,-0.000001,0.000619,0.000125,1.393146
1790767401.040894,0.002216,0.000242,0.000776,0.001352,0.010534,10.110534,-0.020145,0.449947,-0.892828,0.000592,0.000133,1.399632,0.000588,0.000410,1.627143,1.000000,-0.000020,-0.000048,-0.000001,0.000619,0.000125,1.393146
1790767401.044692,0.001201,-0.000226,-0.000443,-0.002543,-0.010858,10.118653,-0.020145,0.449947,-0.892828,0.000592,0.000133,1.399632,0.000588,0.000410,1.627143,1.000000,-0.000020,-0.000048,-0.000001,0.000619,0.000125,1.393146
1790767401.048206,-0.001856,0.000546,0.001026,0.000290,-0.005538,10.096550,-0.020056,0.449804,-0.892902,0.000592,0.000133,1.399632,0.000588,0.000410,1.627143,1.000000,-0.000020,-0.000048,-0.000001,0.000619,0.000125,1.393146
1790767401.052595,0.000998,-0.000513,0.000583,0.005542,0.013058,10.088305,-0.020056,0.449804,-0.892902,0.000592,0.000133,1.399632,0.000588,0.000410,1.627143,1.000000,-0.000016,-0.000051,-0.000000,0.000632,0.000135,1.425790
1790767401.057376,0.001409,-0.000240,-0.000377,0.000348,-0.001006,10.079037,-0.020056,0.449804,-0.892902,0.000592,0.000133,1.399632,0.000588,0.000410,1.627143,1.000000,-0.000016,-0.000051,-0.000000,0.000632,0.000135,1.425790
1790767401.060561,-0.000353,-0.000673,0.000425,-0.005046,0.007680,10.084713,-0.020011,0.449892,-0.892859,0.000610,0.000146,1.451880,0.000552,0.000421,1.636771,1.000000,-0.000016,-0.000051,-0.000000,0.000632,0.000135,1.425790
1790767401.064290,0.001044,-0.000013,-0.000574,0.004966,0.000046,10.055918,-0.020011,0.449892,-0.892859,0.000610,0.000146,1.451880,0.000552,0.000421,1.636771,1.000000,-0.000016,-0.000051,-0.000000,0.000632,0.000135,1.425790
1790767401.068447,-0.000882,-0.000356,0.001088,0.004735,0.002657,10.037980,-0.019835,0.449444,-0.893088,0.000610,0.000146,1.451880,0.000552,0.000421,1.636771,1.000000,-0.000016,-0.000051,-0.000000,0.000632,0.000135,1.425790
1790767401.072945,-0.000347,-0.000250,0.000941,0.001557,-0.001592,10.056714,-0.019835,0.449444,-0.893088,0.000610,0.000146,1.451880,0.000552,0.000421,1.636771,1.000000,-0.000012,-0.000052,-0.000000,0.000643,0.000146,1.458546
1790767401.076735,0.000913,0.000083,-0.000104,-0.006971,0.001520,10.030210,-0.019835,0.449444,-0.893088,0.000610,0.000146,1.451880,0.000552,0.000421,1.636771,1.000000,-0.000012,-0.000052,-0.000000,0.000643,0.000146,1.458546
1790767401.080784,-0.001051,-0.000950,-0.000199,-0.006398,0.002987,10.038639,-0.019883,0.449467,-0.893076,0.000610,0.000146,1.451880,0.000552,0.000421,1.636771,1.000000,-0.000012,-0.000052,-0.000000,0.000643,0.000146,1.458546
1790767401.084369,0.001731,0.000250,-0.000346,0.009727,-0.007962,10.034628,-0.019883,0.449467,-0.893076,0.000610,0.000146,1.451880,0.000552,0.000421,1.636771,1.000000,-0.000012,-0.000052,-0.000000,0.000643,0.000146,1.458546
1790767401.088383,-0.000055,-0.001652,0.001536,-0.001719,-0.007323,10.031211,-0.020136,0.449948,-0.892828,0.000610,0.000146,1.451880,0.000552,0.000421,1.636771,1.000000,-0.000012,-0.000052,-0.000000,0.000643,0.000146,1.458546
1790767401.092653,0.000984,-0.000175,-0.001641,-0.008477,0.014106,10.026087,-0.020136,0.449948,-0.892828,0.000627,0.000160,1.504399,0.000516,0.000427,1.644448,1.000000,-0.000006,-0.000051,0.000000,0.000654,0.000157,1.491399
1790767401.096158,0.002043,-0.000327,0.000677,-0.002877,-0.007589,10.004682,-0.020136,0.449948,-0.892828,0.000627,0.000160,1.504399,0.000516,0.000427,1.644448,1.000000,-0.000006,-0.000051,0.000000,0.000654,0.000157,1.491399
1790767401.100437,0.002155,-0.000042,0.000959,-0.000987,0.007525,10.002715,-0.020301,0.449692,-0.892953,0.000627,0.000160,1.504399,0.000516,0.000427,1.644448,1.000000,-0.000006,-0.000051,0.000000,0.000654,0.000157,1.491399
1790767401.104177,-0.000233,0.000588,-0.000150,0.003044,-0.003153,9.981203,-0.020301,0.449692,-0.892953,0.000627,0.000160,1.504399,0.000516,0.000427,1.644448,1.000000,-0.000006,-0.000051,0.000000,0.000654,0.000157,1.491399
1790767401.109199,0.001320,0.000841,0.000766,0.009427,-0.003876,9.990258,-0.020133,0.450107,-0.892748,0.000627,0.000160,1.504399,0.000516,0.000427,1.644448,1.000000,-0.000006,-0.000051,0.000000,0.000654,0.000157,1.491399
1790767401.112227,0.002230,0.001716,0.001038,0.007115,-0.007942,9.987054,-0.020133,0.450107,-0.892748,0.000627,0.000160,1.504399,0.000516,0.000427,1.644448,1.000000,-0.000001,-0.000049,0.000000,0.000663,0.000168,1.524336
1790767401.116339,0.001063,-0.000191,-0.000227,0.008930,0.000637,9.971328,-0.020133,0.450107,-0.892748,0.000627,0.000160,1.504399,0.000516,0.000427,1.644448,1.000000,-0.000001,-0.000049,0.000000,0.000663,0.000168,1.524336
1790767401.120720,0.000735,0.000192,-0.000167,-0.005025,0.005643,9.971529,-0.020468,0.449649,-0.892971,0.000627,0.000160,1.504399,0.000516,0.000427,1.644448,1.000000,-0.000001,-0.000049,0.000000,0.000663,0.000168,1.524336
1790767401.124822,0.000742,-0.000436,-0.000206,0.002423,-0.001307,9.995504,-0.020468,0.449649,-0.892971,0.000627,0.000160,1.504399,0.000516,0.000427,1.644448,1.000000,-0.000001,-0.000049,0.000000,0.000663,0.000168,1.524336
1790767401.128303,0.000883,0.001016,-0.000413,0.001632,0.001686,9.990659,-0.020069,0.449440,-0.893085,0.000645,0.000175,1.563737,0.000477,0.000426,1.651226,1.000000,-0.000001,-0.000049,0.000000,0.000663,0.000168,1.524336
1790767401.132620,0.000770,-0.000364,0.000419,-0.011063,0.004067,10.000071,-0.020069,0.449440,-0.893085,0.000645,0.000175,1.563737,0.000477,0.000426,1.651226,1.000000,0.000003,-0.000048,0.000000,0.000672,0.000178,1.557345
1790767401.136329,0.001739,-0.000027,0.000044,-0.008994,0.005676,10.012571,-0.020069,0.449440,-0.893085,0.000645,0.000175,1.563737,0.000477,0.000426,1.651226,1.000000,0.000003,-0.000048,0.000000,0.000672,0.000178,1.557345
1790767401.140360,0.000345,0.000637,-0.000240,0.004417,-0.001264,10.001743,-0.020328,0.449836,-0.892880,0.000645,0.000175,1.563737,0.000477,0.000426,1.651226,1.000000,0.000003,-0.000048,0.000000,0.000672,0.000178,1.557345
1790767401.144031,0.001130,0.001161,0.000877,-0.001475,-0.001020,10.008926,-0.020328,0.449836,-0.892880,0.000645,0.000175,1.563737,0.000477,0.000426,1.651226,1.000000,0.000003,-0.000048,0.000000,0.000672,0.000178,1.557345
1790767401.148784,0.001420,0.001229,-0.000016,-0.002314,-0.001986,10.002548,-0.020365,0.449587,-0.893005,0.000645,0.000175,1.563737,0.000477,0.000426,1.651226,1.000000,0.000003,-0.000048,0.000000,0.000672,0.000178,1.557345
1790767401.152329,0.001137,-0.000495,-0.000867,-0.003394,-0.006583,9.994844,-0.020365,0.449587,-0.893005,0.000645,0.000175,1.563737,0.000477,0.000426,1.651226,1.000000,0.000004,-0.000046,0.000000,0.000680,0.000188,1.590435
1790767401.156172,0.000675,-0.001156,0.000400,-0.011075,0.002082,9.977221,-0.020365,0.449587,-0.893005,0.000645,0.000175,1.563737,0.000477,0.000426,1.651226,1.000000,0.000004,-0.000046,0.000000,0.000680,0.000188,1.590435
1790767401.160609,0.000083,0.000889,-0.000852,0.012744,-0.004705,9.948954,-0.020293,0.449356,-0.893122,0.000660,0.000189,1.616692,0.000445,0.000422,1.657477,1.000000,0.000004,-0.000046,0.000000,0.000680,0.000188,1.590435
1790767401.164176,-0.000594,0.000510,-0.000027,-0.005094,-0.000821,9.931792,-0.020293,0.449356,-0.893122,0.000660,0.000189,1.616692,0.000445,0.000422,1.657477,1.000000,0.000004,-0.000046,0.000000,0.000680,0.000188,1.590435
1790767401.168055,-0.000230,0.000405,-0.001246,0.000905,0.007926,9.927098,-0.020229,0.449991,-0.892804,0.000660,0.000189,1.616692,0.000445,0.000422,1.657477,1.000000,0.000004,-0.000046,0.000000,0.000680,0.000188,1.590435
1790767401.172685,-0.000516,-0.000727,-0.000477,0.003510,0.000218,9.920791,-0.020229,0.449991,-0.892804,0.000660,0.000189,1.616692,0.000445,0.000422,1.657477,1.000000,0.000005,-0.000046,0.000000,0.000689,0.000196,1.623595
1790767401.176414,-0.000581,-0.001362,-0.001627,0.007395,0.003002,9.899909,-0.020229,0.449991,-0.892804,0.000660,0.000189,1.616692,0.000445,0.000422,1.657477,1.000000,0.000005,-0.000046,0.000000,0.000689,0.000196,1.623595
1790767401.183512,0.001325,-0.001944,-0.000482,0.010208,-0.000861,9.866576,-0.020384,0.449789,-0.892902,0.000660,0.000189,1.616692,0.000445,0.000422,1.657477,1.000000,0.000005,-0.000046,0.000000,0.000689,0.000196,1.623595
1790767401.184411,0.001325,-0.001944,-0.000482,0.010208,-0.000861,9.866576,-0.020384,0.449789,-0.892902,0.000660,0.000189,1.616692,0.000445,0.000422,1.657477,1.000000,0.000005,-0.000046,0.000000,0.000689,0.000196,1.623595
1790767401.188630,-0.000283,-0.000195,0.000473,0.001645,-0.006798,9.870812,-0.020202,0.449817,-0.892892,0.000660,0.000189,1.616692,0.000445,0.000422,1.657477,1.000000,0.000005,-0.000046,0.000000,0.000689,0.000196,1.623595
1790767401.192365,-0.000956,-0.000987,0.001680,0.005678,-0.006920,9.868079,-0.020202,0.449817,-0.892892,0.000673,0.000202,1.669795,0.000413,0.000417,1.660587,1.000000,0.000005,-0.000046,0.000001,0.000697,0.000204,1.656795
1790767401.196164,-0.000661,0.000959,0.000308,-0.000727,-0.009699,9.847508,-0.020202,0.449817,-0.892892,0.000673,0.000202,1.669795,0.000413,0.000417,1.660587,1.000000,0.000005,-0.000046,0.000001,0.000697,0.000204,1.656795
1790767401.200253,-0.000666,0.002267,0.000883,-0.002101,-0.000329,9.847230,-0.020031,0.449670,-0.892970,0.000673,0.000202,1.669795,0.000413,0.000417,1.660587,1.000000,0.000005,-0.000046,0.000001,0.000697,0.000204,1.656795
1790767401.204357,-0.001604,0.000260,0.000462,0.003041,-0.001013,9.837927,-0.020031,0.449670,-0.892970,0.000673,0.000202,1.669795,0.000413,0.000417,1.660587,1.000000,0.000005,-0.000046,0.000001,0.000697,0.000204,1.656795
1790767401.208555,-0.000913,-0.000381,-0.000505,-0.001943,0.008598,9.824842,-0.020480,0.449643,-0.892974,0.000673,0.000202,1.669795,0.000413,0.000417,1.660587,1.000000,0.000005,-0.000046,0.000001,0.000697,0.000204,1.656795
1790767401.212311,0.000333,-0.001306,-0.000485,0.000845,0.006534,9.814871,-0.020480,0.449643,-0.892974,0.000673,0.000202,1.669795,0.000413,0.000417,1.660587,1.000000,0.000006,-0.000044,0.000001,0.000705,0.000213,1.690017
1790767401.216429,0.000683,0.000267,-0.000810,0.000584,-0.002615,9.807133,-0.020480,0.449643,-0.892974,0.000673,0.000202,1.669795,0.000413,0.000417,1.660587,1.000000,0.000006,-0.000044,0.000001,0.000705,0.000213,1.690017
1790767401.220234,0.001002,-0.000756,0.001502,-0.011377,0.012268,9.804712,-0.020127,0.449325,-0.893142,0.000673,0.000202,1.669795,0.000413,0.000417,1.660587,1.000000,0.000006,-0.000044,0.000001,0.000705,0.000213,1.690017
1790767401.225063,-0.000028,0.001585,0.000966,-0.013140,0.003454,9.813273,-0.020127,0.449325,-0.893142,0.000686,0.000216,1.722953,0.000383,0.000412,1.661410,1.000000,0.000006,-0.000044,0.000001,0.000705,0.000213,1.690017
1790767401.228586,0.000336,0.000973,0.001509,-0.007488,0.002072,9.787393,-0.020521,0.449501,-0.893044,0.000686,0.000216,1.722953,0.000383,0.000412,1.661410,1.000000,0.000006,-0.000044,0.000001,0.000705,0.000213,1.690017
1790767401.232568,0.000524,-0.000669,0.000904,-0.012200,-0.001778,9.798579,-0.020521,0.449501,-0.893044,0.000686,0.000216,1.722953,0.000383,0.000412,1.661410,1.000000,0.000009,-0.000042,0.000001,0.000712,0.000223,1.723244
1790767401.236049,0.001029,0.000269,-0.001048,0.002876,-0.000414,9.800861,-0.020521,0.449501,-0.893044,0.000686,0.000216,1.722953,0.000383,0.000412,1.661410,1.000000,0.000009,-0.000042,0.000001,0.000712,0.000223,1.723244
1790767401.240668,0.000687,-0.001408,0.000881,-0.007573,0.002092,9.768239,-0.019996,0.449617,-0.892998,0.000686,0.000216,1.722953,0.000383,0.000412,1.661410,1.000000,0.000009,-0.000042,0.000001,0.000712,0.000223,1.723244
1790767401.244188,0.000915,0.001265,0.000655,0.009923,-0.005217,9.774683,-0.019996,0.449617,-0.892998,0.000686,0.000216,1.722953,0.000383,0.000412,1.661410,1.000000,0.000009,-0.000042,0.000001,0.000712,0.000223,1.723244
1790767401.251329,-0.000367,0.000257,-0.000772,0.001911,-0.003144,9.755971,-0.020078,0.449617,-0.892996,0.000686,0.000216,1.722953,0.000383,0.000412,1.661410,1.000000,0.000009,-0.000042,0.000001,0.000712,0.000223,1.723244
1790767401.252303,-0.001665,-0.000021,-0.000101,-0.003107,0.011363,9.740126,-0.020078,0.449617,-0.892996,0.000686,0.000216,1.722953,0.000383,0.000412,1.661410,1.000000,0.000012,-0.000040,0.000001,0.000718,0.000233,1.756466
1790767401.257103,0.001175,-0.000368,-0.000656,-0.003876,-0.004296,9.739375,-0.020078,0.449617,-0.892996,0.000686,0.000216,1.722953,0.000383,0.000412,1.661410,1.000000,0.000012,-0.000040,0.000001,0.000718,0.000233,1.756466
1790767401.260728,-0.000047,0.001580,0.001730,-0.003819,-0.001584,9.745392,-0.020489,0.449990,-0.892798,0.000699,0.000230,1.782749,0.000351,0.000403,1.660224,1.000000,0.000012,-0.000040,0.000001,0.000718,0.000233,1.756466
1790767401.263997,0.000445,0.001020,0.001840,-0.002476,0.000689,9.717951,-0.020489,0.449990,-0.892798,0.000699,0.000230,1.782749,0.000351,0.000403,1.660224,1.000000,0.000012,-0.000040,0.000001,0.000718,0.000233,1.756466
1790767401.268226,0.001123,0.000989,0.000864,-0.000238,0.005169,9.722444,-0.020061,0.449904,-0.892851,0.000699,0.000230,1.782749,0.000351,0.000403,1.660224,1.000000,0.000012,-0.000040,0.000001,0.000718,0.000233,1.756466
1790767401.272521,-0.000102,0.001915,-0.000406,-0.000360,0.003813,9.729057,-0.020061,0.449904,-0.892851,0.000699,0.000230,1.782749,0.000351,0.000403,1.660224,1.000000,0.000015,-0.000039,0.000001,0.000724,0.000242,1.789664
1790767401.276627,0.000394,-0.000250,0.000687,-0.004523,-0.007319,9.700543,-0.020061,0.449904,-0.892851,0.000699,0.000230,1.782749,0.000351,0.000403,1.660224,1.000000,0.000015,-0.000039,0.000001,0.000724,0.000242,1.789664
1790767401.280123,0.000933,-0.000326,0.000565,0.000583,0.001991,9.694627,-0.020163,0.449426,-0.893090,0.000699,0.000230,1.782749,0.000351,0.000403,1.660224,1.000000,0.000015,-0.000039,0.000001,0.000724,0.000242,1.789664
1790767401.284381,-0.000844,0.000038,-0.000502,-0.000775,0.006372,9.671432,-0.020163,0.449426,-0.893090,0.000699,0.000230,1.782749,0.000351,0.000403,1.660224,1.000000,0.000015,-0.000039,0.000001,0.000724,0.000242,1.789664
1790767401.288211,-0.000033,0.001523,0.000065,-0.000624,0.000124,9.681830,-0.020319,0.449550,-0.893024,0.000699,0.000230,1.782749,0.000351,0.000403,1.660224,1.000000,0.000015,-0.000039,0.000001,0.000724,0.000242,1.789664
1790767401.292673,-0.001324,-0.001395,-0.000353,-0.003244,-0.011649,9.658646,-0.020319,0.449550,-0.893024,0.000710,0.000243,1.835823,0.000326,0.000393,1.656934,1.000000,0.000019,-0.000039,0.000000,0.000731,0.000252,1.822823
1790767401.296116,0.000240,0.001212,0.001401,-0.002952,-0.004551,9.658952,-0.020319,0.449550,-0.893024,0.000710,0.000243,1.835823,0.000326,0.000393,1.656934,1.000000,0.000019,-0.000039,0.000000,0.000731,0.000252,1.822823
1790767401.300484,0.001617,0.001079,0.000587,0.003698,-0.005878,9.650450,-0.020100,0.449700,-0.892953,0.000710,0.000243,1.835823,0.000326,0.000393,1.656934,1.000000,0.000019,-0.000039,0.000000,0.000731,0.000252,1.822823
1790767401.304376,0.002674,-0.000029,0.001208,0.006160,-0.001703,9.648488,-0.020100,0.449700,-0.892953,0.000710,0.000243,1.835823,0.000326,0.000393,1.656934,1.000000,0.000019,-0.000039,0.000000,0.000731,0.000252,1.822823
1790767401.308271,0.000597,-0.000174,-0.001529,0.005111,-0.016459,9.628907,-0.020136,0.449943,-0.892830,0.000710,0.000243,1.835823,0.000326,0.000393,1.656934,1.000000,0.000019,-0.000039,0.000000,0.000731,0.000252,1.822823
1790767401.312420,-0.000817,0.001886,-0.001915,0.012851,0.009422,9.636175,-0.020136,0.449943,-0.892830,0.000710,0.000243,1.835823,0.000326,0.000393,1.656934,1.000000,0.000024,-0.000040,-0.000001,0.000738,0.000262,1.855925
1790767401.316254,0.000547,-0.000569,0.001181,0.007847,-0.007366,9.615184,-0.020136,0.449943,-0.892830,0.000710,0.000243,1.835823,0.000326,0.000393,1.656934,1.000000,0.000024,-0.000040,-0.000001,0.000738,0.000262,1.855925
1790767401.320318,-0.001139,-0.000509,-0.001114,0.003196,0.002021,9.612145,-0.020596,0.449613,-0.892986,0.000710,0.000243,1.835823,0.000326,0.000393,1.656934,1.000000,0.000024,-0.000040,-0.000001,0.000738,0.000262,1.855925
1790767401.325137,-0.000534,-0.000101,0.000336,0.001470,0.008980,9.592209,-0.020596,0.449613,-0.892986,0.000720,0.000255,1.888752,0.000300,0.000377,1.651460,1.000000,0.000024,-0.000040,-0.000001,0.000738,0.000262,1.855925
1790767401.328737,-0.001104,-0.000427,0.000464,0.006512,0.005013,9.589331,-0.020188,0.450111,-0.892745,0.000720,0.000255,1.888752,0.000300,0.000377,1.651460,1.000000,0.000024,-0.000040,-0.000001,0.000738,0.000262,1.855925
1790767401.332298,0.001199,-0.001244,-0.000629,0.002404,-0.000220,9.589486,-0.020188,0.450111,-0.892745,0.000720,0.000255,1.888752,0.000300,0.000377,1.651460,1.000000,0.000030,-0.000042,-0.000001,0.000745,0.000272,1.888954
1790767401.336176,0.001318,-0.001526,0.001064,0.005337,-0.008690,9.573647,-0.020188,0.450111,-0.892745,0.000720,0.000255,1.888752,0.000300,0.000377,1.651460,1.000000,0.000030,-0.000042,-0.000001,0.000745,0.000272,1.888954
1790767401.340596,0.001644,0.000348,0.000778,-0.000642,0.008233,9.585421,-0.020174,0.449553,-0.893026,0.000720,0.000255,1.888752,0.000300,0.000377,1.651460,1.000000,0.000030,-0.000042,-0.000001,0.000745,0.000272,1.888954
1790767401.344287,0.000371,-0.000868,0.000702,0.007023,-0.000999,9.605400,-0.020174,0.449553,-0.893026,0.000720,0.000255,1.888752,0.000300,0.000377,1.651460,1.000000,0.000030,-0.000042,-0.000001,0.000745,0.000272,1.888954
1790767401.348550,0.000186,0.002279,0.000165,0.007470,-0.011571,9.599426,-0.020700,0.449460,-0.893060,0.000720,0.000255,1.888752,0.000300,0.000377,1.651460,1.000000,0.000030,-0.000042,-0.000001,0.000745,0.000272,1.888954
1790767401.351943,-0.000604,-0.000333,0.000637,-0.001392,-0.005412,9.601879,-0.020700,0.449460,-0.893060,0.000720,0.000255,1.888752,0.000300,0.000377,1.651460,1.000000,0.000035,-0.000045,-0.000002,0.000751,0.000282,1.921898
1790767401.356123,0.000263,-0.000322,0.001412,-0.009395,-0.003993,9.608389,-0.020700,0.449460,-0.893060,0.000729,0.000267,1.941477,0.000272,0.000356,1.644834,1.000000,0.000035,-0.000045,-0.000002,0.000751,0.000282,1.921898
1790767401.360529,-0.000175,0.000281,-0.000567,-0.004734,-0.003515,9.607601,-0.020380,0.449329,-0.893134,0.000729,0.000267,1.941477,0.000272,0.000356,1.644834,1.000000,0.000035,-0.000045,-0.000002,0.000751,0.000282,1.921898
1790767401.364261,0.001278,-0.000804,-0.000475,-0.009174,0.005581,9.606125,-0.020380,0.449329,-0.893134,0.000729,0.000267,1.941477,0.000272,0.000356,1.644834,1.000000,0.000035,-0.000045,-0.000002,0.000751,0.000282,1.921898
1790767401.367977,0.000577,-0.000471,0.000251,-0.003504,0.000186,9.616605,-0.020851,0.449438,-0.893068,0.000729,0.000267,1.941477,0.000272,0.000356,1.644834,1.000000,0.000035,-0.000045,-0.000002,0.000751,0.000282,1.921898
1790767401.372461,-0.001068,0.000504,0.001899,-0.004435,0.015096,9.584103,-0.020851,0.449438,-0.893068,0.000729,0.000267,1.941477,0.000272,0.000356,1.644834,1.000000,0.000038,-0.000045,-0.000004,0.000757,0.000291,1.954763
1790767401.376272,0.000069,-0.000451,-0.000156,0.004028,0.002443,9.552457,-0.020851,0.449438,-0.893068,0.000729,0.000267,1.941477,0.000272,0.000356,1.644834,1.000000,0.000038,-0.000045,-0.000004,0.000757,0.000291,1.954763
1790767401.380487,0.000174,0.000532,-0.001557,0.010892,0.008887,9.534867,-0.020601,0.449342,-0.893122,0.000729,0.000267,1.941477,0.000272,0.000356,1.644834,1.000000,0.000038,-0.000045,-0.000004,0.000757,0.000291,1.954763
1790767401.384078,0.000176,-0.000069,0.001042,0.006938,0.007733,9.537110,-0.020601,0.449342,-0.893122,0.000729,0.000267,1.941477,0.000272,0.000356,1.644834,1.000000,0.000038,-0.000045,-0.000004,0.000757,0.000291,1.954763
1790767401.389333,0.000157,-0.000121,-0.000504,0.005823,-0.004749,9.513154,-0.020378,0.449818,-0.892887,0.000729,0.000267,1.941477,0.000272,0.000356,1.644834,1.000000,0.000038,-0.000045,-0.000004,0.000757,0.000291,1.954763
1790767401.393702,-0.001769,-0.000773,-0.000201,-0.004442,0.008015,9.496459,-0.020378,0.449818,-0.892887,0.000738,0.000279,2.000534,0.000238,0.000328,1.636281,1.000000,0.000042,-0.000045,-0.000005,0.000762,0.000299,1.987534
1790767401.396885,0.000915,0.000502,-0.000055,-0.007343,-0.006087,9.491619,-0.020378,0.449818,-0.892887,0.000738,0.000279,2.000534,0.000238,0.000328,1.636281,1.000000,0.000042,-0.000045,-0.000005,0.000762,0.000299,1.987534
1790767401.400733,0.000261,0.000401,-0.001757,0.003637,0.001877,9.490783,-0.020344,0.449685,-0.892956,0.000738,0.000279,2.000534,0.000238,0.000328,1.636281,1.000000,0.000042,-0.000045,-0.000005,0.000762,0.000299,1.987534
1790767401.405195,0.001235,0.000999,0.000530,-0.010546,-0.001621,9.472673,-0.020344,0.449685,-0.892956,0.000738,0.000279,2.000534,0.000238,0.000328,1.636281,1.000000,0.000042,-0.000045,-0.000005,0.000762,0.000299,1.987534
1790767401.409418,0.001421,-0.000285,0.000455,-0.007239,0.001033,9.461337,-0.020360,0.449377,-0.893110,0.000738,0.000279,2.000534,0.000238,0.000328,1.636281,1.000000,0.000042,-0.000045,-0.000005,0.000762,0.000299,1.987534
1790767401.413493,-0.001538,-0.001119,-0.000337,0.010364,-0.003691,9.470950,-0.020360,0.449377,-0.893110,0.000738,0.000279,2.000534,0.000238,0.000328,1.636281,1.000000,0.000045,-0.000043,-0.000006,0.000765,0.000307,2.020183
1790767401.416496,0.000559,-0.000165,-0.000621,0.013313,-0.005615,9.456962,-0.020360,0.449377,-0.893110,0.000738,0.000279,2.000534,0.000238,0.000328,1.636281,1.000000,0.000045,-0.000043,-0.000006,0.000765,0.000307,2.020183
1790767401.420843,-0.000353,0.001318,-0.000207,0.004400,0.004571,9.436406,-0.020066,0.449665,-0.892972,0.000738,0.000279,2.000534,0.000238,0.000328,1.636281,1.000000,0.000045,-0.000043,-0.000006,0.000765,0.000307,2.020183
1790767401.425105,-0.001199,-0.000312,0.000320,0.004169,0.006853,9.427548,-0.020066,0.449665,-0.892972,0.000745,0.000289,2.052706,0.000211,0.000299,1.625459,1.000000,0.000045,-0.000043,-0.000006,0.000765,0.000307,2.020183
1790767401.428867,0.001093,-0.000238,-0.001532,-0.004133,-0.001723,9.423585,-0.020231,0.449601,-0.893000,0.000745,0.000289,2.052706,0.000211,0.000299,1.625459,1.000000,0.000045,-0.000043,-0.000006,0.000765,0.000307,2.020183
1790767401.432940,0.000158,0.000886,-0.000377,0.009834,0.005869,9.418392,-0.020231,0.449601,-0.893000,0.000745,0.000289,2.052706,0.000211,0.000299,1.625459,1.000000,0.000047,-0.000040,-0.000008,0.000768,0.000314,2.052691
1790767401.437679,0.000473,-0.001052,0.000611,0.004031,-0.000396,9.395810,-0.020231,0.449601,-0.893000,0.000745,0.000289,2.052706,0.000211,0.000299,1.625459,1.000000,0.000047,-0.000040,-0.000008,0.000768,0.000314,2.052691
1790767401.440981,-0.000715,0.000209,-0.000643,0.001322,-0.003675,9.397168,-0.020109,0.449570,-0.893018,0.000745,0.000289,2.052706,0.000211,0.000299,1.625459,1.000000,0.000047,-0.000040,-0.000008,0.000768,0.000314,2.052691
1790767401.444811,0.000775,0.000582,0.000549,-0.004421,-0.013469,9.393333,-0.020109,0.449570,-0.893018,0.000745,0.000289,2.052706,0.000211,0.000299,1.625459,1.000000,0.000047,-0.000040,-0.000008,0.000768,0.000314,2.052691
1790767401.448266,0.000869,0.001656,-0.000394,0.004670,-0.007499,9.382673,-0.020241,0.449686,-0.892957,0.000745,0.000289,2.052706,0.000211,0.000299,1.625459,1.000000,0.000047,-0.000040,-0.000008,0.000768,0.000314,2.052691
1790767401.452981,0.000350,0.000481,0.000509,-0.001542,0.000592,9.374496,-0.020241,0.449686,-0.892957,0.000745,0.000289,2.052706,0.000211,0.000299,1.625459,1.000000,0.000048,-0.000038,-0.000009,0.000771,0.000320,2.085042
1790767401.459644,-0.000697,0.000349,0.000471,-0.005879,0.005680,9.374144,-0.020241,0.449686,-0.892957,0.000751,0.000298,2.104492,0.000186,0.000268,1.612455,1.000000,0.000048,-0.000038,-0.000009,0.000771,0.000320,2.085042
1790767401.461145,0.001944,0.000340,0.001866,0.002622,0.005471,9.354331,-0.020363,0.449842,-0.892876,0.000751,0.000298,2.104492,0.000186,0.000268,1.612455,1.000000,0.000048,-0.000038,-0.000009,0.000771,0.000320,2.085042
1790767401.464293,-0.000882,0.000156,0.001306,0.008054,-0.002614,9.351051,-0.020363,0.449842,-0.892876,0.000751,0.000298,2.104492,0.000186,0.000268,1.612455,1.000000,0.000048,-0.000038,-0.000009,0.000771,0.000320,2.085042
1790767401.468170,-0.000249,0.001416,-0.001203,0.001994,0.004385,9.345500,-0.020108,0.449648,-0.892980,0.000751,0.000298,2.104492,0.000186,0.000268,1.612455,1.000000,0.000048,-0.000038,-0.000009,0.000771,0.000320,2.085042
1790767401.472447,-0.000808,-0.000081,-0.001279,0.008995,0.001151,9.337835,-0.020108,0.449648,-0.892980,0.000751,0.000298,2.104492,0.000186,0.000268,1.612455,1.000000,0.000047,-0.000037,-0.000010,0.000774,0.000325,2.117219
1790767401.476757,-0.001805,-0.000489,-0.003350,-0.005840,-0.005871,9.331308,-0.020108,0.449648,-0.892980,0.000751,0.000298,2.104492,0.000186,0.000268,1.612455,1.000000,0.000047,-0.000037,-0.000010,0.000774,0.000325,2.117219
1790767401.480600,-0.000437,-0.001660,-0.000524,0.002882,0.009142,9.315413,-0.020556,0.449787,-0.892899,0.000751,0.000298,2.104492,0.000186,0.000268,1.612455,1.000000,0.000047,-0.000037,-0.000010,0.000774,0.000325,2.117219
1790767401.484215,-0.000561,0.001135,0.000787,-0.002835,0.006081,9.321024,-0.020556,0.449787,-0.892899,0.000751,0.000298,2.104492,0.000186,0.000268,1.612455,1.000000,0.000047,-0.000037,-0.000010,0.000774,0.000325,2.117219
1790767401.488437,-0.001142,-0.000329,0.000223,0.006154,0.000811,9.301225,-0.019812,0.449775,-0.892922,0.000757,0.000306,2.155825,0.000163,0.000238,1.597388,1.000000,0.000047,-0.000037,-0.000010,0.000774,0.000325,2.117219
1790767401.492887,0.002105,0.001568,0.000509,-0.006194,0.001496,9.286873,-0.019812,0.449775,-0.892922,0.000757,0.000306,2.155825,0.000163,0.000238,1.597388,1.000000,0.000043,-0.000037,-0.000011,0.000777,0.000328,2.149206
1790767401.496681,-0.001786,-0.000348,-0.001386,0.002067,0.000096,9.290684,-0.019812,0.449775,-0.892922,0.000757,0.000306,2.155825,0.000163,0.000238,1.597388,1.000000,0.000043,-0.000037,-0.000011,0.000777,0.000328,2.149206
1790767401.500863,0.000926,0.000829,0.000442,0.011175,0.000282,9.273242,-0.020253,0.449710,-0.892945,0.000757,0.000306,2.155825,0.000163,0.000238,1.597388,1.000000,0.000043,-0.000037,-0.000011,0.000777,0.000328,2.149206
1790767401.504325,-0.000084,-0.001025,-0.000770,-0.009825,0.017657,9.259092,-0.020253,0.449710,-0.892945,0.000757,0.000306,2.155825,0.000163,0.000238,1.597388,1.000000,0.000043,-0.000037,-0.000011,0.000777,0.000328,2.149206
1790767401.508864,-0.000900,-0.000551,0.000602,-0.007654,-0.008208,9.254867,-0.020342,0.449482,-0.893058,0.000757,0.000306,2.155825,0.000163,0.000238,1.597388,1.000000,0.000043,-0.000037,-0.000011,0.000777,0.000328,2.149206
1790767401.513212,0.000402,-0.001002,0.000299,0.006779,0.009027,9.246137,-0.020342,0.449482,-0.893058,0.000757,0.000306,2.155825,0.000163,0.000238,1.597388,1.000000,0.000037,-0.000038,-0.000012,0.000781,0.000329,2.180985
1790767401.516502,0.000930,0.000304,0.001287,-0.002199,-0.005822,9.263512,-0.020342,0.449482,-0.893058,0.000757,0.000306,2.155825,0.000163,0.000238,1.597388,1.000000,0.000037,-0.000038,-0.000012,0.000781,0.000329,2.180985
