t,gx,gy,gz,ax,ay,az,mx,my,mz,px,py,pz,vx,vy,vz,tqw,tqx,tqy,tqz,tpx,tpy,tpz
1790767591.099423,-0.000109,-0.000052,-0.000286,0.005844,0.006829,9.799954,-0.020156,0.449602,-0.893002,0.000000,0.000000,0.000000,-0.000000,0.000000,0.000000,1.000000,0.000000,0.000000,-0.000000,-0.000000,0.000000,-0.013000
1790767591.102954,-0.000815,0.000180,-0.002456,0.003033,0.004176,9.807511,-0.020156,0.449602,-0.893002,0.000000,0.000000,0.000000,-0.000000,0.000000,0.000000,1.000000,0.000000,0.000000,-0.000000,-0.000000,0.000000,-0.013000
1790767591.107261,0.000223,-0.001447,0.001610,-0.003060,-0.003375,9.797704,-0.020089,0.449393,-0.893108,0.000000,0.000000,0.000000,-0.000000,0.000000,0.000000,1.000000,0.000000,0.000000,-0.000000,-0.000000,0.000000,-0.013000
1790767591.110674,0.000348,-0.001046,-0.000204,-0.003037,-0.004070,9.800532,-0.020089,0.449393,-0.893108,0.000000,0.000000,0.000000,-0.000000,0.000000,0.000000,1.000000,0.000000,0.000000,-0.000000,-0.000000,0.000000,-0.013000
1790767591.114651,0.000462,0.001763,-0.001515,0.004518,0.002761,9.799347,-0.020102,0.449309,-0.893150,0.000000,0.000000,0.000000,-0.000000,0.000000,0.000000,1.000000,0.000000,0.000000,-0.000000,-0.000000,0.000000,-0.013000
1790767591.118090,-0.000324,0.001330,-0.000565,0.009320,0.002597,9.798756,-0.020102,0.449309,-0.893150,0.000000,0.000000,0.000000,-0.000000,0.000000,0.000000,1.000000,0.000000,0.000000,-0.000000,-0.000000,0.000000,-0.013000
1790767591.122502,-0.000241,-0.000044,-0.000021,0.010438,0.004826,9.812589,-0.020102,0.449309,-0.893150,0.000000,0.000000,0.000000,-0.000000,0.000000,0.000000,1.000000,0.000000,0.000000,-0.000000,-0.000000,0.000000,-0.013000
1790767591.126607,-0.000559,-0.001056,0.001472,0.005956,-0.012017,9.799015,-0.019711,0.449726,-0.892949,0.000000,0.000000,0.000000,-0.000000,0.000000,0.000000,1.000000,0.000000,0.000000,-0.000000,-0.000000,0.000000,-0.013000
1790767591.130785,0.001219,-0.001275,0.001263,-0.008673,0.009149,9.798056,-0.019711,0.449726,-0.892949,0.000000,0.000000,0.000000,-0.000000,0.000000,0.000000,1.000000,0.000000,0.000000,-0.000000,-0.000000,0.000000,-0.013000
1790767591.134245,-0.002135,-0.000475,-0.001558,0.002481,0.001808,9.789773,-0.020182,0.449729,-0.892937,0.000000,0.000000,0.000000,-0.000000,0.000000,0.000000,1.000000,0.000000,0.000000,-0.000000,-0.000000,0.000000,-0.013000
1790767591.139699,-0.000944,0.001677,0.000216,0.004445,0.006203,9.812069,-0.020182,0.449729,-0.892937,0.000000,0.000000,0.000000,0.000000,0.000000,0.000000,1.000000,0.000000,0.000000,-0.000000,-0.000000,0.000000,-0.013000
1790767591.142693,-0.000652,0.000474,0.000268,0.002830,-0.000200,9.792076,-0.020182,0.449729,-0.892937,0.000000,0.000000,0.000000,0.000000,0.000000,0.000000,1.000000,0.000000,0.000000,-0.000000,-0.000000,0.000000,-0.013000
1790767591.147357,-0.001429,-0.000156,-0.000568,-0.004141,0.014448,9.799068,-0.020230,0.449911,-0.892844,0.000000,0.000000,0.000000,0.000000,0.000000,0.000000,1.000000,0.000000,0.000000,-0.000000,-0.000000,0.000000,-0.013000
1790767591.150801,0.000796,-0.000726,-0.000713,0.004138,0.005533,9.807160,-0.020230,0.449911,-0.892844,0.000000,0.000000,0.000000,0.000000,0.000000,0.000000,1.000000,0.000000,0.000000,-0.000000,-0.000000,0.000000,-0.013000
1790767591.154405,0.000357,-0.001234,-0.000814,0.003999,-0.010802,9.814390,-0.019501,0.449590,-0.893022,0.000000,0.000000,0.000000,0.000000,0.000000,0.000000,1.000000,0.000000,0.000000,-0.000000,-0.000000,0.000000,-0.013000
1790767591.158692,-0.000554,-0.001632,-0.000370,-0.004079,-0.005876,11.185999,-0.019501,0.449590,-0.893022,0.000000,0.000000,0.000000,0.000000,0.000000,0.000000,1.000000,0.000000,0.000000,-0.000000,-0.000000,0.000000,-0.013000
1790767591.166332,0.000358,0.001628,0.001467,-0.005362,0.005955,13.015376,-0.020577,0.449569,-0.893008,0.000000,0.000000,0.000000,0.000000,0.000000,0.000000,1.000000,0.000000,0.000000,-0.000000,-0.000000,0.000000,-0.013000
1790767591.167246,0.000358,0.001628,0.001467,-0.005362,0.005955,13.015376,-0.020577,0.449569,-0.893008,0.000000,0.000000,0.000000,0.000000,0.000000,0.000000,1.000000,0.000000,0.000000,-0.000000,-0.000000,0.000000,-0.013000
1790767591.170464,0.000924,0.000981,-0.000106,0.007245,-0.006273,13.609765,-0.020577,0.449569,-0.893008,-0.000000,0.000000,0.000371,-0.000000,0.000000,0.043475,1.000000,0.000001,0.000001,0.000000,-0.000000,0.000001,-0.012629
1790767591.174476,0.000664,-0.000121,-0.000215,0.003561,0.005999,14.069049,-0.020370,0.449752,-0.892921,-0.000000,0.000000,0.000371,-0.000000,0.000000,0.043475,1.000000,0.000001,0.000001,0.000000,-0.000000,0.000001,-0.012629
1790767591.178803,0.000011,0.000694,0.000809,-0.008637,0.005511,14.386359,-0.020370,0.449752,-0.892921,-0.000000,0.000000,0.000371,-0.000000,0.000000,0.043475,1.000000,0.000001,0.000001,0.000000,-0.000000,0.000001,-0.012629
1790767591.182576,0.000634,-0.000936,-0.000040,0.006080,-0.005846,14.621690,-0.020370,0.449752,-0.892921,-0.000000,0.000000,0.000371,-0.000000,0.000000,0.043475,1.000000,0.000001,0.000001,0.000000,-0.000000,0.000001,-0.012629
1790767591.186285,-0.000804,-0.000674,-0.000265,0.010957,0.004038,14.791681,-0.020007,0.449255,-0.893180,-0.000000,0.000000,0.000371,-0.000000,0.000000,0.043475,1.000000,0.000001,0.000001,0.000000,-0.000000,0.000001,-0.012629
1790767591.190575,-0.000461,-0.000425,-0.000399,-0.000692,-0.007987,14.901320,-0.020007,0.449255,-0.893180,-0.000000,0.000000,0.000371,-0.000000,0.000000,0.043475,1.000000,0.000002,0.000004,0.000000,-0.000002,0.000001,-0.010653
1790767591.194736,0.000877,0.001222,0.000621,0.006351,-0.003370,14.962772,-0.020093,0.449780,-0.892913,-0.000000,0.000000,0.000371,-0.000000,0.000000,0.043475,1.000000,0.000002,0.000004,0.000000,-0.000002,0.000001,-0.010653
1790767591.198161,0.001394,-0.001962,0.000206,-0.011635,-0.000910,15.016207,-0.020093,0.449780,-0.892913,-0.000000,0.000000,0.000371,-0.000000,0.000000,0.043475,1.000000,0.000002,0.000004,0.000000,-0.000002,0.000001,-0.010653
1790767591.202189,0.000787,0.001561,-0.000762,0.000958,0.000743,15.052651,-0.020093,0.449780,-0.892913,0.000000,-0.000000,0.004508,0.000002,-0.000002,0.201063,1.000000,0.000002,0.000004,0.000000,-0.000002,0.000001,-0.010653
1790767591.206157,-0.000852,0.000004,-0.000696,0.006734,0.007544,15.086127,-0.020389,0.449529,-0.893033,0.000000,-0.000000,0.004508,0.000002,-0.000002,0.201063,1.000000,0.000002,0.000004,0.000000,-0.000002,0.000001,-0.010653
1790767591.210171,0.000583,-0.000214,-0.000899,-0.004823,-0.009072,15.106481,-0.020389,0.449529,-0.893033,0.000000,-0.000000,0.004508,0.000002,-0.000002,0.201063,1.000000,0.000003,0.000010,0.000000,-0.000005,0.000001,-0.006629
1790767591.214912,0.000031,0.001269,0.000131,0.006972,-0.003992,15.124181,-0.020216,0.449372,-0.893116,0.000000,-0.000000,0.004508,0.000002,-0.000002,0.201063,1.000000,0.000003,0.000010,0.000000,-0.000005,0.000001,-0.006629
1790767591.218161,0.001543,-0.000053,0.000428,0.001538,-0.009227,15.144150,-0.020216,0.449372,-0.893116,0.000000,-0.000000,0.004508,0.000002,-0.000002,0.201063,1.000000,0.000003,0.000010,0.000000,-0.000005,0.000001,-0.006629
1790767591.224357,-0.000059,-0.000941,-0.001664,0.001467,0.005303,15.070259,-0.020216,0.449372,-0.893116,0.000000,-0.000000,0.004508,0.000002,-0.000002,0.201063,1.000000,0.000003,0.000010,0.000000,-0.000005,0.000001,-0.006629
1790767591.226870,-0.000414,-0.000560,0.000348,-0.008125,0.003119,15.032456,-0.020301,0.449458,-0.893071,0.000000,-0.000000,0.004508,0.000002,-0.000002,0.201063,1.000000,0.000003,0.000010,0.000000,-0.000005,0.000001,-0.006629
1790767591.230317,-0.000732,0.001115,-0.000719,-0.007764,0.008842,14.982091,-0.020301,0.449458,-0.893071,0.000000,-0.000000,0.004508,0.000002,-0.000002,0.201063,1.000000,0.000002,0.000019,0.000001,-0.000009,0.000001,-0.000488
1790767591.234260,-0.001395,0.000863,-0.000066,-0.012998,0.008435,14.941383,-0.020248,0.449847,-0.892876,0.000000,-0.000000,0.004508,0.000002,-0.000002,0.201063,1.000000,0.000002,0.000019,0.000001,-0.000009,0.000001,-0.000488
1790767591.238686,0.000636,0.001156,-0.000552,-0.014031,-0.001499,14.912405,-0.020248,0.449847,-0.892876,0.000000,-0.000000,0.015550,0.000016,-0.000005,0.389834,1.000000,0.000002,0.000019,0.000001,-0.000009,0.000001,-0.000488
1790767591.242432,0.000039,-0.000087,-0.000538,0.012959,0.008126,14.874820,-0.020248,0.449847,-0.892876,0.000000,-0.000000,0.015550,0.000016,-0.000005,0.389834,1.000000,0.000002,0.000019,0.000001,-0.000009,0.000001,-0.000488
1790767591.246277,-0.000579,0.001629,0.001016,-0.006450,0.000234,14.870860,-0.019933,0.449680,-0.892967,0.000000,-0.000000,0.015550,0.000016,-0.000005,0.389834,1.000000,0.000002,0.000019,0.000001,-0.000009,0.000001,-0.000488
1790767591.250624,0.000219,0.000977,-0.000565,-0.007478,0.007760,14.829442,-0.019933,0.449680,-0.892967,0.000000,-0.000000,0.015550,0.000016,-0.000005,0.389834,1.000000,0.000000,0.000028,0.000001,-0.000013,-0.000000,0.007713
1790767591.254351,-0.000567,0.000627,-0.000252,-0.000260,0.004735,14.735955,-0.020008,0.449393,-0.893110,0.000000,-0.000000,0.015550,0.000016,-0.000005,0.389834,1.000000,0.000000,0.000028,0.000001,-0.000013,-0.000000,0.007713
1790767591.258754,-0.000998,0.001007,-0.000982,0.003727,0.003101,14.638041,-0.020008,0.449393,-0.893110,0.000000,-0.000000,0.015550,0.000016,-0.000005,0.389834,1.000000,0.000000,0.000028,0.000001,-0.000013,-0.000000,0.007713
1790767591.262265,-0.001577,0.001759,0.000247,-0.001418,-0.002732,14.560595,-0.020008,0.449393,-0.893110,0.000000,-0.000000,0.015550,0.000016,-0.000005,0.389834,1.000000,0.000000,0.000028,0.000001,-0.000013,-0.000000,0.007713
1790767591.266852,-0.000555,0.000456,-0.000561,-0.002629,0.002927,14.491412,-0.020123,0.449574,-0.893016,0.000000,-0.000000,0.015550,0.000016,-0.000005,0.389834,1.000000,0.000000,0.000028,0.000001,-0.000013,-0.000000,0.007713
1790767591.270369,-0.000540,-0.000593,0.000382,0.002144,0.010337,14.435283,-0.020123,0.449574,-0.893016,0.000001,-0.000000,0.030881,0.000042,-0.000005,0.545985,1.000000,-0.000001,0.000035,0.000002,-0.000016,-0.000001,0.017880
1790767591.274373,-0.000581,-0.000071,-0.000618,-0.009640,-0.010761,14.419335,-0.020164,0.449607,-0.892999,0.000001,-0.000000,0.030881,0.000042,-0.000005,0.545985,1.000000,-0.000001,0.000035,0.000002,-0.000016,-0.000001,0.017880
1790767591.278919,0.001120,0.001695,-0.001281,0.002158,-0.003650,14.358624,-0.020164,0.449607,-0.892999,0.000001,-0.000000,0.030881,0.000042,-0.000005,0.545985,1.000000,-0.000001,0.000035,0.000002,-0.000016,-0.000001,0.017880
1790767591.282270,-0.000182,-0.000008,-0.000213,-0.009331,-0.008502,14.323916,-0.020164,0.449607,-0.892999,0.000001,-0.000000,0.030881,0.000042,-0.000005,0.545985,1.000000,-0.000001,0.000035,0.000002,-0.000016,-0.000001,0.017880
1790767591.286590,-0.000345,0.000519,-0.000622,-0.003325,-0.005761,14.214911,-0.020316,0.449542,-0.893028,0.000001,-0.000000,0.030881,0.000042,-0.000005,0.545985,1.000000,-0.000001,0.000035,0.000002,-0.000016,-0.000001,0.017880
1790767591.290504,0.000342,0.000224,0.000241,-0.010805,-0.007687,14.144631,-0.020316,0.449542,-0.893028,0.000001,-0.000000,0.030881,0.000042,-0.000005,0.545985,1.000000,-0.000001,0.000040,0.000003,-0.000017,-0.000001,0.029889
1790767591.294552,0.000025,0.000482,0.000694,0.003255,-0.000701,14.066925,-0.020091,0.449814,-0.892896,0.000001,-0.000000,0.030881,0.000042,-0.000005,0.545985,1.000000,-0.000001,0.000040,0.000003,-0.000017,-0.000001,0.029889
1790767591.298677,0.000552,0.000428,0.001563,-0.010713,-0.006416,13.990603,-0.020091,0.449814,-0.892896,0.000001,-0.000000,0.030881,0.000042,-0.000005,0.545985,1.000000,-0.000001,0.000040,0.000003,-0.000017,-0.000001,0.029889
1790767591.302148,0.001164,-0.000762,-0.000101,-0.001175,0.008789,13.955253,-0.020091,0.449814,-0.892896,0.000003,-0.000000,0.050925,0.000078,-0.000003,0.686299,1.000000,-0.000001,0.000040,0.000003,-0.000017,-0.000001,0.029889
1790767591.306528,-0.000869,-0.000366,0.001117,-0.004991,-0.003318,13.909097,-0.020284,0.449143,-0.893230,0.000003,-0.000000,0.050925,0.000078,-0.000003,0.686299,1.000000,-0.000001,0.000040,0.000003,-0.000017,-0.000001,0.029889
1790767591.310734,0.000882,0.000917,-0.001029,0.005189,-0.008656,13.864546,-0.020284,0.449143,-0.893230,0.000003,-0.000000,0.050925,0.000078,-0.000003,0.686299,1.000000,-0.000001,0.000044,0.000004,-0.000017,-0.000001,0.043611
1790767591.314187,0.001363,0.001110,0.000019,0.002177,0.007193,13.836431,-0.020231,0.449597,-0.893002,0.000003,-0.000000,0.050925,0.000078,-0.000003,0.686299,1.000000,-0.000001,0.000044,0.000004,-0.000017,-0.000001,0.043611
1790767591.318405,0.000525,-0.000034,-0.000045,-0.002308,0.002378,13.742078,-0.020231,0.449597,-0.893002,0.000003,-0.000000,0.050925,0.000078,-0.000003,0.686299,1.000000,-0.000001,0.000044,0.000004,-0.000017,-0.000001,0.043611
1790767591.322922,-0.001892,0.000589,0.001125,-0.002705,-0.012580,13.674665,-0.020231,0.449597,-0.893002,0.000003,-0.000000,0.050925,0.000078,-0.000003,0.686299,1.000000,-0.000001,0.000044,0.000004,-0.000017,-0.000001,0.043611
1790767591.326440,-0.000528,-0.000226,0.001075,-0.000362,-0.006578,13.613901,-0.020102,0.449507,-0.893051,0.000003,-0.000000,0.050925,0.000078,-0.000003,0.686299,1.000000,-0.000001,0.000044,0.000004,-0.000017,-0.000001,0.043611
1790767591.330394,0.001797,0.000132,0.000247,0.002668,-0.001554,13.548084,-0.020102,0.449507,-0.893051,0.000003,-0.000000,0.050925,0.000078,-0.000003,0.686299,1.000000,-0.000001,0.000046,0.000005,-0.000016,-0.000001,0.058935
1790767591.334075,0.000023,-0.000081,-0.000785,0.002542,-0.005950,13.500677,-0.019897,0.449862,-0.892876,0.000006,-0.000001,0.075181,0.000117,-0.000003,0.811504,1.000000,-0.000001,0.000046,0.000005,-0.000016,-0.000001,0.058935
1790767591.338390,-0.000845,0.000306,-0.000145,0.000315,-0.004939,13.451734,-0.019897,0.449862,-0.892876,0.000006,-0.000001,0.075181,0.000117,-0.000003,0.811504,1.000000,-0.000001,0.000046,0.000005,-0.000016,-0.000001,0.058935
1790767591.342690,-0.001187,0.000501,0.000314,-0.007121,0.009257,13.417003,-0.019897,0.449862,-0.892876,0.000006,-0.000001,0.075181,0.000117,-0.000003,0.811504,1.000000,-0.000001,0.000046,0.000005,-0.000016,-0.000001,0.058935
1790767591.346302,-0.002111,0.000285,0.000306,0.001312,-0.011748,13.370975,-0.020122,0.449633,-0.892987,0.000006,-0.000001,0.075181,0.000117,-0.000003,0.811504,1.000000,-0.000001,0.000046,0.000005,-0.000016,-0.000001,0.058935
1790767591.350375,0.000449,-0.000592,0.001023,0.002604,-0.014510,13.299737,-0.020122,0.449633,-0.892987,0.000006,-0.000001,0.075181,0.000117,-0.000003,0.811504,1.000000,-0.000001,0.000049,0.000005,-0.000015,-0.000001,0.075743
1790767591.354271,-0.001701,-0.000682,0.000393,-0.003111,-0.005036,13.215935,-0.019655,0.449610,-0.893009,0.000006,-0.000001,0.075181,0.000117,-0.000003,0.811504,1.000000,-0.000001,0.000049,0.000005,-0.000015,-0.000001,0.075743
1790767591.358674,-0.001681,-0.000676,0.000099,-0.012679,-0.000733,13.164389,-0.019655,0.449610,-0.893009,0.000006,-0.000001,0.075181,0.000117,-0.000003,0.811504,1.000000,-0.000001,0.000049,0.000005,-0.000015,-0.000001,0.075743
1790767591.362281,0.000070,-0.000041,0.000391,-0.008452,-0.010257,13.128728,-0.019655,0.449610,-0.893009,0.000006,-0.000001,0.075181,0.000117,-0.000003,0.811504,1.000000,-0.000001,0.000049,0.000005,-0.000015,-0.000001,0.075743
1790767591.366157,0.001404,0.000177,0.000140,0.001760,0.011683,13.071397,-0.020203,0.449477,-0.893063,0.000006,-0.000001,0.075181,0.000117,-0.000003,0.811504,1.000000,-0.000001,0.000049,0.000005,-0.000015,-0.000001,0.075743
1790767591.371854,-0.000425,0.000719,0.001004,0.009103,0.002718,13.019576,-0.020203,0.449477,-0.893063,0.000012,-0.000001,0.106927,0.000163,-0.000001,0.935371,1.000000,-0.000001,0.000051,0.000006,-0.000013,-0.000001,0.093927
1790767591.375110,-0.000270,-0.000679,0.001601,-0.001864,-0.001756,12.987126,-0.020105,0.449316,-0.893146,0.000012,-0.000001,0.106927,0.000163,-0.000001,0.935371,1.000000,-0.000001,0.000051,0.000006,-0.000013,-0.000001,0.093927
1790767591.378308,-0.000080,0.000430,0.000468,0.003411,-0.004979,12.953733,-0.020105,0.449316,-0.893146,0.000012,-0.000001,0.106927,0.000163,-0.000001,0.935371,1.000000,-0.000001,0.000051,0.000006,-0.000013,-0.000001,0.093927
1790767591.382714,0.000335,-0.000760,0.000682,0.001214,0.003623,12.855712,-0.020105,0.449316,-0.893146,0.000012,-0.000001,0.106927,0.000163,-0.000001,0.935371,1.000000,-0.000001,0.000051,0.000006,-0.000013,-0.000001,0.093927
1790767591.386222,-0.001006,0.002895,0.000428,-0.001184,-0.004767,12.808446,-0.020608,0.449559,-0.893013,0.000012,-0.000001,0.106927,0.000163,-0.000001,0.935371,1.000000,-0.000001,0.000051,0.000006,-0.000013,-0.000001,0.093927
1790767591.391166,-0.000278,0.000746,-0.001511,-0.005014,-0.006693,12.729252,-0.020608,0.449559,-0.893013,0.000012,-0.000001,0.106927,0.000163,-0.000001,0.935371,1.000000,-0.000000,0.000053,0.000006,-0.000010,-0.000001,0.113381
1790767591.394481,0.000163,-0.000615,0.000431,0.000218,0.007310,12.686233,-0.020714,0.449403,-0.893089,0.000012,-0.000001,0.106927,0.000163,-0.000001,0.935371,1.000000,-0.000000,0.000053,0.000006,-0.000010,-0.000001,0.113381
1790767591.398624,-0.000732,0.000572,-0.000238,0.009059,0.008263,12.644446,-0.020714,0.449403,-0.893089,0.000012,-0.000001,0.106927,0.000163,-0.000001,0.935371,1.000000,-0.000000,0.000053,0.000006,-0.000010,-0.000001,0.113381
1790767591.402612,-0.000255,-0.000425,-0.001023,0.005548,-0.000729,12.608388,-0.020714,0.449403,-0.893089,0.000017,-0.000001,0.138616,0.000206,-0.000001,1.030845,1.000000,-0.000000,0.000053,0.000006,-0.000010,-0.000001,0.113381
1790767591.406582,0.000395,0.000904,-0.000409,-0.004189,0.012328,12.552235,-0.020482,0.449626,-0.892982,0.000017,-0.000001,0.138616,0.000206,-0.000001,1.030845,1.000000,-0.000000,0.000053,0.000006,-0.000010,-0.000001,0.113381
1790767591.410758,-0.000081,0.000744,-0.001486,-0.004013,0.001119,12.549396,-0.020482,0.449626,-0.892982,0.000017,-0.000001,0.138616,0.000206,-0.000001,1.030845,1.000000,0.000001,0.000053,0.000006,-0.000006,-0.000000,0.133995
1790767591.414614,0.000146,0.000824,-0.000690,0.006651,0.022151,12.476824,-0.020312,0.449467,-0.893066,0.000017,-0.000001,0.138616,0.000206,-0.000001,1.030845,1.000000,0.000001,0.000053,0.000006,-0.000006,-0.000000,0.133995
1790767591.418380,-0.000742,0.000706,-0.000323,-0.002199,0.015755,12.410957,-0.020312,0.449467,-0.893066,0.000017,-0.000001,0.138616,0.000206,-0.000001,1.030845,1.000000,0.000001,0.000053,0.000006,-0.000006,-0.000000,0.133995
1790767591.422051,-0.000271,0.000524,-0.000024,0.001790,-0.004796,12.366728,-0.020312,0.449467,-0.893066,0.000017,-0.000001,0.138616,0.000206,-0.000001,1.030845,1.000000,0.000001,0.000053,0.000006,-0.000006,-0.000000,0.133995
1790767591.426630,0.000668,-0.000127,-0.000645,0.004777,0.005926,12.332905,-0.020271,0.449710,-0.892945,0.000017,-0.000001,0.138616,0.000206,-0.000001,1.030845,1.000000,0.000001,0.000053,0.000006,-0.000006,-0.000000,0.133995
1790767591.430396,-0.000560,-0.000346,0.000035,-0.003534,0.001561,12.287975,-0.020271,0.449710,-0.892945,0.000017,-0.000001,0.138616,0.000206,-0.000001,1.030845,1.000000,0.000002,0.000052,0.000006,-0.000001,0.000000,0.155678
1790767591.434369,0.000317,-0.000681,-0.001507,0.002191,0.006514,12.236991,-0.019922,0.449557,-0.893030,0.000025,-0.000001,0.173134,0.000248,-0.000002,1.114130,1.000000,0.000002,0.000052,0.000006,-0.000001,0.000000,0.155678
1790767591.438656,0.000396,0.000305,0.000272,-0.008109,0.000848,12.198482,-0.019922,0.449557,-0.893030,0.000025,-0.000001,0.173134,0.000248,-0.000002,1.114130,1.000000,0.000002,0.000052,0.000006,-0.000001,0.000000,0.155678
1790767591.442141,-0.000379,-0.000507,-0.000048,-0.010660,0.002649,12.184609,-0.019922,0.449557,-0.893030,0.000025,-0.000001,0.173134,0.000248,-0.000002,1.114130,1.000000,0.000002,0.000052,0.000006,-0.000001,0.000000,0.155678
1790767591.446538,-0.000544,-0.000637,-0.001029,0.004620,0.001308,12.119855,-0.020216,0.449700,-0.892951,0.000025,-0.000001,0.173134,0.000248,-0.000002,1.114130,1.000000,0.000002,0.000052,0.000006,-0.000001,0.000000,0.155678
1790767591.450465,0.000098,-0.003304,0.000579,0.002645,0.006554,12.066856,-0.020216,0.449700,-0.892951,0.000025,-0.000001,0.173134,0.000248,-0.000002,1.114130,1.000000,0.000003,0.000048,0.000006,0.000006,0.000001,0.178338
1790767591.454208,0.000071,-0.001081,0.000298,-0.005482,0.002009,12.028120,-0.020349,0.449379,-0.893109,0.000025,-0.000001,0.173134,0.000248,-0.000002,1.114130,1.000000,0.000003,0.000048,0.000006,0.000006,0.000001,0.178338
1790767591.458228,-0.000533,-0.001252,-0.001768,0.004476,-0.014142,11.981379,-0.020349,0.449379,-0.893109,0.000025,-0.000001,0.173134,0.000248,-0.000002,1.114130,1.000000,0.000003,0.000048,0.000006,0.000006,0.000001,0.178338
1790767591.462055,0.000911,0.001493,-0.000238,-0.004063,-0.014553,11.965899,-0.020349,0.449379,-0.893109,0.000025,-0.000001,0.173134,0.000248,-0.000002,1.114130,1.000000,0.000003,0.000048,0.000006,0.000006,0.000001,0.178338
1790767591.466530,0.000703,0.000054,0.000861,-0.008864,-0.004543,11.938358,-0.020185,0.449741,-0.892931,0.000033,-0.000001,0.210114,0.000285,-0.000004,1.186337,1.000000,0.000003,0.000048,0.000006,0.000006,0.000001,0.178338
1790767591.472012,0.001016,-0.000304,-0.000077,0.005942,-0.006486,11.914032,-0.020185,0.449741,-0.892931,0.000033,-0.000001,0.210114,0.000285,-0.000004,1.186337,1.000000,0.000005,0.000045,0.000007,0.000013,0.000001,0.201893
1790767591.474720,-0.000177,-0.000170,0.000807,0.006458,0.003074,11.896679,-0.020042,0.449505,-0.893053,0.000033,-0.000001,0.210114,0.000285,-0.000004,1.186337,1.000000,0.000005,0.000045,0.000007,0.000013,0.000001,0.201893
1790767591.478113,0.000350,-0.000656,0.000121,0.002122,-0.002714,11.814354,-0.020042,0.449505,-0.893053,0.000033,-0.000001,0.210114,0.000285,-0.000004,1.186337,1.000000,0.000005,0.000045,0.000007,0.000013,0.000001,0.201893
1790767591.482173,-0.000548,-0.001390,0.000076,0.005345,-0.003934,11.764987,-0.020042,0.449505,-0.893053,0.000033,-0.000001,0.210114,0.000285,-0.000004,1.186337,1.000000,0.000005,0.000045,0.000007,0.000013,0.000001,0.201893
1790767591.485917,-0.000826,0.000522,0.001356,0.004722,0.006480,11.728911,-0.020188,0.449750,-0.892926,0.000033,-0.000001,0.210114,0.000285,-0.000004,1.186337,1.000000,0.000005,0.000045,0.000007,0.000013,0.000001,0.201893
1790767591.490643,0.001669,-0.000641,0.001817,0.000531,0.007610,11.692979,-0.020188,0.449750,-0.892926,0.000033,-0.000001,0.210114,0.000285,-0.000004,1.186337,1.000000,0.000006,0.000043,0.000008,0.000020,0.000002,0.226272
1790767591.494404,0.001367,-0.001153,-0.000038,0.014034,-0.007449,11.662749,-0.020396,0.449446,-0.893075,0.000033,-0.000001,0.210114,0.000285,-0.000004,1.186337,1.000000,0.000006,0.000043,0.000008,0.000020,0.000002,0.226272
1790767591.498173,-0.000490,0.000078,0.000521,-0.000617,-0.003337,11.649611,-0.020396,0.449446,-0.893075,0.000033,-0.000001,0.210114,0.000285,-0.000004,1.186337,1.000000,0.000006,0.000043,0.000008,0.000020,0.000002,0.226272
1790767591.502262,-0.000321,-0.000619,-0.000092,-0.008114,-0.010063,11.594609,-0.020396,0.449446,-0.893075,0.000044,-0.000001,0.254261,0.000321,-0.000009,1.256383,1.000000,0.000006,0.000043,0.000008,0.000020,0.000002,0.226272
1790767591.506409,-0.000120,-0.000151,0.000025,-0.001154,0.000979,11.581533,-0.020403,0.449762,-0.892915,0.000044,-0.000001,0.254261,0.000321,-0.000009,1.256383,1.000000,0.000006,0.000043,0.000008,0.000020,0.000002,0.226272
1790767591.510324,0.000584,-0.001277,-0.000321,-0.010665,-0.007771,11.517851,-0.020403,0.449762,-0.892915,0.000044,-0.000001,0.254261,0.000321,-0.000009,1.256383,1.000000,0.000007,0.000041,0.000008,0.000028,0.000002,0.251397
1790767591.517128,-0.000251,-0.000474,-0.000258,-0.005736,0.007122,11.466869,-0.020378,0.449620,-0.892988,0.000044,-0.000001,0.254261,0.000321,-0.000009,1.256383,1.000000,0.000007,0.000041,0.000008,0.000028,0.000002,0.251397
1790767591.518365,0.000916,-0.000357,0.000816,-0.004957,-0.010802,11.429936,-0.020378,0.449620,-0.892988,0.000044,-0.000001,0.254261,0.000321,-0.000009,1.256383,1.000000,0.000007,0.000041,0.000008,0.000028,0.000002,0.251397
1790767591.522962,-0.001482,0.000515,-0.000847,0.004290,-0.003589,11.385160,-0.020378,0.449620,-0.892988,0.000044,-0.000001,0.254261,0.000321,-0.000009,1.256383,1.000000,0.000007,0.000041,0.000008,0.000028,0.000002,0.251397
1790767591.526436,-0.000117,-0.000423,0.001227,0.013243,-0.005798,11.347204,-0.019998,0.449695,-0.892958,0.000044,-0.000001,0.254261,0.000321,-0.000009,1.256383,1.000000,0.000007,0.000041,0.000008,0.000028,0.000002,0.251397
1790767591.530474,0.000404,-0.000632,0.000487,-0.002693,-0.004470,11.314367,-0.019998,0.449695,-0.892958,0.000044,-0.000001,0.254261,0.000321,-0.000009,1.256383,1.000000,0.000008,0.000039,0.000008,0.000035,0.000002,0.277193
1790767591.534789,0.000986,0.000684,-0.000732,0.003777,-0.003301,11.313571,-0.020182,0.449356,-0.893125,0.000055,-0.000001,0.295426,0.000349,-0.000014,1.308208,1.000000,0.000008,0.000039,0.000008,0.000035,0.000002,0.277193
1790767591.538751,-0.000015,-0.000789,-0.000822,0.006909,0.008949,11.253590,-0.020182,0.449356,-0.893125,0.000055,-0.000001,0.295426,0.000349,-0.000014,1.308208,1.000000,0.000008,0.000039,0.000008,0.000035,0.000002,0.277193
1790767591.542687,0.000557,-0.000739,-0.000498,0.002480,-0.004156,11.222079,-0.020182,0.449356,-0.893125,0.000055,-0.000001,0.295426,0.000349,-0.000014,1.308208,1.000000,0.000008,0.000039,0.000008,0.000035,0.000002,0.277193
1790767591.546783,0.000872,-0.000642,0.000616,0.004312,0.008182,11.188855,-0.019967,0.449473,-0.893071,0.000055,-0.000001,0.295426,0.000349,-0.000014,1.308208,1.000000,0.000008,0.000039,0.000008,0.000035,0.000002,0.277193
1790767591.550533,-0.000093,-0.000784,0.000080,0.005597,0.004857,11.159660,-0.019967,0.449473,-0.893071,0.000055,-0.000001,0.295426,0.000349,-0.000014,1.308208,1.000000,0.000007,0.000037,0.000008,0.000043,0.000002,0.303585
1790767591.554150,-0.000744,0.000454,0.000611,-0.002509,-0.002376,11.124141,-0.020074,0.449316,-0.893147,0.000055,-0.000001,0.295426,0.000349,-0.000014,1.308208,1.000000,0.000007,0.000037,0.000008,0.000043,0.000002,0.303585
1790767591.558729,-0.000033,-0.000324,0.001451,-0.009467,0.001535,11.085459,-0.020074,0.449316,-0.893147,0.000055,-0.000001,0.295426,0.000349,-0.000014,1.308208,1.000000,0.000007,0.000037,0.000008,0.000043,0.000002,0.303585
1790767591.562307,-0.000776,0.000358,0.000774,-0.004801,-0.001195,11.064206,-0.020074,0.449316,-0.893147,0.000055,-0.000001,0.295426,0.000349,-0.000014,1.308208,1.000000,0.000007,0.000037,0.000008,0.000043,0.000002,0.303585
1790767591.566752,-0.000359,0.000937,-0.001016,0.006285,-0.011897,11.029380,-0.020115,0.449441,-0.893083,0.000067,-0.000002,0.338086,0.000374,-0.000020,1.351309,1.000000,0.000007,0.000037,0.000008,0.000043,0.000002,0.303585
1790767591.572011,0.000966,0.000972,-0.002179,0.000372,0.000009,11.023119,-0.020115,0.449441,-0.893083,0.000067,-0.000002,0.338086,0.000374,-0.000020,1.351309,1.000000,0.000004,0.000035,0.000009,0.000051,-0.000000,0.330510
1790767591.575640,-0.000194,-0.000707,0.000162,0.004086,-0.007699,10.997636,-0.020185,0.449586,-0.893009,0.000067,-0.000002,0.338086,0.000374,-0.000020,1.351309,1.000000,0.000004,0.000035,0.000009,0.000051,-0.000000,0.330510
1790767591.578308,-0.003660,-0.000109,0.001475,-0.005891,-0.001966,10.989058,-0.020185,0.449586,-0.893009,0.000067,-0.000002,0.338086,0.000374,-0.000020,1.351309,1.000000,0.000004,0.000035,0.000009,0.000051,-0.000000,0.330510
1790767591.582292,-0.001398,-0.000246,-0.000120,0.008635,0.011378,10.955856,-0.020185,0.449586,-0.893009,0.000067,-0.000002,0.338086,0.000374,-0.000020,1.351309,1.000000,0.000004,0.000035,0.000009,0.000051,-0.000000,0.330510
1790767591.586391,-0.001553,-0.000966,0.000202,0.004928,0.008337,10.923889,-0.019820,0.449717,-0.892951,0.000067,-0.000002,0.338086,0.000374,-0.000020,1.351309,1.000000,0.000004,0.000035,0.000009,0.000051,-0.000000,0.330510
1790767591.591007,-0.000905,-0.001365,0.000873,0.002507,-0.009216,10.904656,-0.019820,0.449717,-0.892951,0.000067,-0.000002,0.338086,0.000374,-0.000020,1.351309,1.000000,0.000001,0.000033,0.000009,0.000060,-0.000002,0.357916
1790767591.594349,-0.000632,-0.000953,-0.000275,-0.005444,-0.003637,10.879904,-0.020466,0.449769,-0.892910,0.000067,-0.000002,0.338086,0.000374,-0.000020,1.351309,1.000000,0.000001,0.000033,0.000009,0.000060,-0.000002,0.357916
1790767591.597997,0.000267,-0.000886,0.000517,-0.008861,-0.017753,10.846535,-0.020466,0.449769,-0.892910,0.000079,-0.000003,0.382002,0.000397,-0.000021,1.387847,1.000000,0.000001,0.000033,0.000009,0.000060,-0.000002,0.357916
1790767591.601852,-0.000284,-0.000885,0.001108,-0.002620,0.006046,10.834894,-0.020466,0.449769,-0.892910,0.000079,-0.000003,0.382002,0.000397,-0.000021,1.387847,1.000000,0.000001,0.000033,0.000009,0.000060,-0.000002,0.357916
1790767591.606926,0.002055,0.001548,-0.000743,-0.002709,0.015589,10.817238,-0.020245,0.449600,-0.893001,0.000079,-0.000003,0.382002,0.000397,-0.000021,1.387847,1.000000,0.000001,0.000033,0.000009,0.000060,-0.000002,0.357916
1790767591.610619,-0.001360,-0.000088,0.001150,-0.006896,-0.002329,10.801008,-0.020245,0.449600,-0.893001,0.000079,-0.000003,0.382002,0.000397,-0.000021,1.387847,1.000000,0.000000,0.000031,0.000009,0.000069,-0.000003,0.385754
1790767591.614741,-0.000999,0.000711,-0.001102,-0.003275,-0.004876,10.791210,-0.019933,0.449567,-0.893024,0.000079,-0.000003,0.382002,0.000397,-0.000021,1.387847,1.000000,0.000000,0.000031,0.000009,0.000069,-0.000003,0.385754
1790767591.618377,-0.000450,-0.001177,-0.001119,-0.010542,0.006527,10.723129,-0.019933,0.449567,-0.893024,0.000079,-0.000003,0.382002,0.000397,-0.000021,1.387847,1.000000,0.000000,0.000031,0.000009,0.000069,-0.000003,0.385754
1790767591.622384,0.000772,-0.000344,0.000601,0.001442,-0.003019,10.702609,-0.019933,0.449567,-0.893024,0.000079,-0.000003,0.382002,0.000397,-0.000021,1.387847,1.000000,0.000000,0.000031,0.000009,0.000069,-0.000003,0.385754
1790767591.627222,0.000448,0.000015,-0.000903,0.003648,-0.000228,10.669217,-0.020325,0.449461,-0.893069,0.000079,-0.000003,0.382002,0.000397,-0.000021,1.387847,1.000000,0.000000,0.000031,0.000009,0.000069,-0.000003,0.385754
1790767591.630751,0.002491,0.000064,0.000508,-0.010878,0.001116,10.624638,-0.020325,0.449461,-0.893069,0.000079,-0.000003,0.382002,0.000397,-0.000021,1.387847,1.000000,0.000002,0.000028,0.000008,0.000079,-0.000002,0.413979
1790767591.634150,-0.001248,0.000899,0.000450,-0.014266,0.004269,10.630386,-0.019916,0.449698,-0.892959,0.000094,-0.000003,0.432665,0.000419,-0.000021,1.421493,1.000000,0.000002,0.000028,0.000008,0.000079,-0.000002,0.413979
1790767591.640780,0.001696,-0.002335,-0.000088,0.009144,-0.009031,10.590496,-0.019916,0.449698,-0.892959,0.000094,-0.000003,0.432665,0.000419,-0.000021,1.421493,1.000000,0.000002,0.000028,0.000008,0.000079,-0.000002,0.413979
1790767591.642950,0.000314,-0.000945,0.000992,-0.005292,-0.000425,10.565727,-0.019916,0.449698,-0.892959,0.000094,-0.000003,0.432665,0.000419,-0.000021,1.421493,1.000000,0.000002,0.000028,0.000008,0.000079,-0.000002,0.413979
1790767591.646633,0.000111,-0.000264,0.000574,0.005818,-0.007695,10.576229,-0.020317,0.449542,-0.893028,0.000094,-0.000003,0.432665,0.000419,-0.000021,1.421493,1.000000,0.000002,0.000028,0.000008,0.000079,-0.000002,0.413979
1790767591.650643,0.000994,0.000265,0.000443,-0.008348,0.004281,10.520815,-0.020317,0.449542,-0.893028,0.000094,-0.000003,0.432665,0.000419,-0.000021,1.421493,1.000000,0.000004,0.000025,0.000008,0.000089,-0.000002,0.442533
1790767591.654105,-0.000636,0.001385,0.000781,-0.004930,0.001770,10.481418,-0.020151,0.449702,-0.892951,0.000094,-0.000003,0.432665,0.000419,-0.000021,1.421493,1.000000,0.000004,0.000025,0.000008,0.000089,-0.000002,0.442533
1790767591.658747,0.000461,0.000317,-0.000068,-0.002917,-0.005182,10.453948,-0.020151,0.449702,-0.892951,0.000094,-0.000003,0.432665,0.000419,-0.000021,1.421493,1.000000,0.000004,0.000025,0.000008,0.000089,-0.000002,0.442533
1790767591.662276,0.002135,-0.000826,0.000270,-0.000636,-0.001339,10.409698,-0.020151,0.449702,-0.892951,0.000094,-0.000003,0.432665,0.000419,-0.000021,1.421493,1.000000,0.000004,0.000025,0.000008,0.000089,-0.000002,0.442533
1790767591.666662,0.000309,-0.000454,0.001249,0.009244,-0.006695,10.384212,-0.020165,0.449467,-0.893069,0.000107,-0.000004,0.478577,0.000436,-0.000023,1.443903,1.000000,0.000004,0.000025,0.000008,0.000089,-0.000002,0.442533
1790767591.670644,-0.000424,0.000149,0.000700,0.002310,0.001945,10.369211,-0.020165,0.449467,-0.893069,0.000107,-0.000004,0.478577,0.000436,-0.000023,1.443903,1.000000,0.000008,0.000021,0.000008,0.000100,-0.000000,0.471362
1790767591.674975,0.001008,-0.000108,0.000193,-0.014300,-0.000857,10.343327,-0.019968,0.449471,-0.893072,0.000107,-0.000004,0.478577,0.000436,-0.000023,1.443903,1.000000,0.000008,0.000021,0.000008,0.000100,-0.000000,0.471362
1790767591.678348,0.000156,-0.001168,-0.000092,-0.010874,0.009204,10.331580,-0.019968,0.449471,-0.893072,0.000107,-0.000004,0.478577,0.000436,-0.000023,1.443903,1.000000,0.000008,0.000021,0.000008,0.000100,-0.000000,0.471362
1790767591.685793,0.000252,-0.001010,0.000763,0.005383,-0.006441,10.256815,-0.020108,0.449390,-0.893109,0.000107,-0.000004,0.478577,0.000436,-0.000023,1.443903,1.000000,0.000008,0.000021,0.000008,0.000100,-0.000000,0.471362
1790767591.688017,0.000252,-0.001010,0.000763,0.005383,-0.006441,10.256815,-0.020108,0.449390,-0.893109,0.000107,-0.000004,0.478577,0.000436,-0.000023,1.443903,1.000000,0.000008,0.000021,0.000008,0.000100,-0.000000,0.471362
1790767591.690596,0.000046,0.000045,0.000106,-0.011708,-0.001009,10.224880,-0.020108,0.449390,-0.893109,0.000107,-0.000004,0.478577,0.000436,-0.000023,1.443903,1.000000,0.000013,0.000014,0.000007,0.000112,0.000001,0.500410
1790767591.694355,-0.000215,-0.002718,0.000520,0.004723,-0.004515,10.194452,-0.020078,0.449614,-0.892997,0.000107,-0.000004,0.478577,0.000436,-0.000023,1.443903,1.000000,0.000013,0.000014,0.000007,0.000112,0.000001,0.500410
1790767591.698321,0.000515,-0.000737,-0.000695,-0.000346,0.003482,10.195674,-0.020078,0.449614,-0.892997,0.000122,-0.000005,0.525077,0.000446,-0.000030,1.459186,1.000000,0.000013,0.000014,0.000007,0.000112,0.000001,0.500410
1790767591.702289,0.000222,-0.001200,-0.000291,0.008099,-0.008741,10.161837,-0.020078,0.449614,-0.892997,0.000122,-0.000005,0.525077,0.000446,-0.000030,1.459186,1.000000,0.000013,0.000014,0.000007,0.000112,0.000001,0.500410
1790767591.707289,-0.000762,-0.000485,-0.000660,-0.005022,-0.006654,10.137254,-0.020066,0.449884,-0.892861,0.000122,-0.000005,0.525077,0.000446,-0.000030,1.459186,1.000000,0.000013,0.000014,0.000007,0.000112,0.000001,0.500410
1790767591.710439,0.001272,-0.001626,-0.000487,0.006042,-0.003703,10.122914,-0.020066,0.449884,-0.892861,0.000122,-0.000005,0.525077,0.000446,-0.000030,1.459186,1.000000,0.000018,0.000006,0.000006,0.000124,0.000003,0.529621
1790767591.714001,-0.000284,-0.001481,-0.001685,0.006595,-0.000058,10.113629,-0.020107,0.449746,-0.892930,0.000122,-0.000005,0.525077,0.000446,-0.000030,1.459186,1.000000,0.000018,0.000006,0.000006,0.000124,0.000003,0.529621
1790767591.718241,0.000242,-0.000491,0.000703,0.002416,-0.014528,10.105787,-0.020107,0.449746,-0.892930,0.000122,-0.000005,0.525077,0.000446,-0.000030,1.459186,1.000000,0.000018,0.000006,0.000006,0.000124,0.000003,0.529621
1790767591.724384,-0.000159,-0.001153,0.000548,0.004570,0.009575,10.088926,-0.020107,0.449746,-0.892930,0.000122,-0.000005,0.525077,0.000446,-0.000030,1.459186,1.000000,0.000018,0.000006,0.000006,0.000124,0.000003,0.529621
1790767591.726330,-0.000116,-0.000578,0.000576,-0.004332,0.000625,10.077736,-0.020055,0.449495,-0.893058,0.000122,-0.000005,0.525077,0.000446,-0.000030,1.459186,1.000000,0.000018,0.000006,0.000006,0.000124,0.000003,0.529621
1790767591.730313,-0.000419,-0.002060,0.000119,0.003641,-0.005054,10.077110,-0.020055,0.449495,-0.893058,0.000136,-0.000006,0.571957,0.000448,-0.000042,1.468967,1.000000,0.000025,0.000000,0.000005,0.000136,0.000006,0.558957
1790767591.734241,-0.000379,-0.000343,0.000196,-0.000714,-0.005933,10.042706,-0.020225,0.449474,-0.893065,0.000136,-0.000006,0.571957,0.000448,-0.000042,1.468967,1.000000,0.000025,0.000000,0.000005,0.000136,0.000006,0.558957
1790767591.738485,-0.000262,0.000929,0.001397,0.004053,0.008956,10.003702,-0.020225,0.449474,-0.893065,0.000136,-0.000006,0.571957,0.000448,-0.000042,1.468967,1.000000,0.000025,0.000000,0.000005,0.000136,0.000006,0.558957
1790767591.742361,-0.000072,-0.000530,0.000667,0.009416,0.004412,9.979449,-0.020225,0.449474,-0.893065,0.000136,-0.000006,0.571957,0.000448,-0.000042,1.468967,1.000000,0.000025,0.000000,0.000005,0.000136,0.000006,0.558957
1790767591.747344,0.000846,-0.000277,0.000995,0.004687,-0.004394,9.949474,-0.020062,0.449507,-0.893052,0.000136,-0.000006,0.571957,0.000448,-0.000042,1.468967,1.000000,0.000025,0.000000,0.000005,0.000136,0.000006,0.558957
1790767591.750470,0.001271,-0.001380,0.000016,-0.005718,0.003971,9.942858,-0.020062,0.449507,-0.893052,0.000136,-0.000006,0.571957,0.000448,-0.000042,1.468967,1.000000,0.000031,-0.000005,0.000004,0.000147,0.000008,0.588384
1790767591.754112,0.000438,-0.001030,0.000832,-0.000067,-0.000290,9.929456,-0.020108,0.449663,-0.892972,0.000136,-0.000006,0.571957,0.000448,-0.000042,1.468967,1.000000,0.000031,-0.000005,0.000004,0.000147,0.000008,0.588384
1790767591.759231,0.001543,-0.001067,-0.001453,-0.000042,-0.015279,9.910553,-0.020108,0.449663,-0.892972,0.000136,-0.000006,0.571957,0.000448,-0.000042,1.468967,1.000000,0.000031,-0.000005,0.000004,0.000147,0.000008,0.588384
1790767591.762613,0.000501,-0.000933,0.001525,0.006636,-0.010101,9.894753,-0.020108,0.449663,-0.892972,0.000136,-0.000006,0.571957,0.000448,-0.000042,1.468967,1.000000,0.000031,-0.000005,0.000004,0.000147,0.000008,0.588384
1790767591.766641,-0.000214,-0.001271,-0.000161,-0.002265,-0.005008,9.881559,-0.020169,0.449537,-0.893034,0.000152,-0.000008,0.624964,0.000443,-0.000063,1.474274,1.000000,0.000031,-0.000005,0.000004,0.000147,0.000008,0.588384
1790767591.770238,0.000017,-0.000019,-0.001349,-0.008802,0.009426,9.849880,-0.020169,0.449537,-0.893034,0.000152,-0.000008,0.624964,0.000443,-0.000063,1.474274,1.000000,0.000037,-0.000009,0.000003,0.000158,0.000010,0.617862
1790767591.774329,0.001196,0.000825,0.000266,0.005704,-0.005249,9.840835,-0.020210,0.449777,-0.892912,0.000152,-0.000008,0.624964,0.000443,-0.000063,1.474274,1.000000,0.000037,-0.000009,0.000003,0.000158,0.000010,0.617862
1790767591.778049,0.000143,0.000012,-0.001289,0.004877,0.003659,9.817498,-0.020210,0.449777,-0.892912,0.000152,-0.000008,0.624964,0.000443,-0.000063,1.474274,1.000000,0.000037,-0.000009,0.000003,0.000158,0.000010,0.617862
1790767591.782714,0.000160,-0.000650,0.000278,0.002178,-0.006752,9.812130,-0.020210,0.449777,-0.892912,0.000152,-0.000008,0.624964,0.000443,-0.000063,1.474274,1.000000,0.000037,-0.000009,0.000003,0.000158,0.000010,0.617862
1790767591.786183,0.001479,-0.000247,-0.001272,0.000686,0.006374,9.805673,-0.020062,0.449746,-0.892931,0.000152,-0.000008,0.624964,0.000443,-0.000063,1.474274,1.000000,0.000037,-0.000009,0.000003,0.000158,0.000010,0.617862
1790767591.790870,0.001459,0.000755,-0.000170,0.005214,0.007659,9.807898,-0.020062,0.449746,-0.892931,0.000152,-0.000008,0.624964,0.000443,-0.000063,1.474274,1.000000,0.000042,-0.000012,0.000002,0.000169,0.000010,0.647358
1790767591.795151,0.002442,0.000625,-0.000661,0.004838,-0.007382,9.763924,-0.020596,0.449675,-0.892955,0.000152,-0.000008,0.624964,0.000443,-0.000063,1.474274,1.000000,0.000042,-0.000012,0.000002,0.000169,0.000010,0.647358
1790767591.802682,0.000038,0.000086,0.000518,-0.006535,-0.004509,9.740025,-0.020596,0.449675,-0.892955,0.000166,-0.000010,0.672154,0.000435,-0.000089,1.474426,1.000000,0.000042,-0.000012,0.000002,0.000169,0.000010,0.647358
1790767591.803835,0.000561,-0.000037,-0.000229,-0.001243,-0.000512,9.715995,-0.020596,0.449675,-0.892955,0.000166,-0.000010,0.672154,0.000435,-0.000089,1.474426,1.000000,0.000042,-0.000012,0.000002,0.000169,0.000010,0.647358
1790767591.807330,0.000623,0.000279,0.000665,0.010423,0.001996,9.713147,-0.020172,0.449389,-0.893108,0.000166,-0.000010,0.672154,0.000435,-0.000089,1.474426,1.000000,0.000042,-0.000012,0.000002,0.000169,0.000010,0.647358
1790767591.810779,0.000801,-0.000824,-0.000393,0.006304,-0.001086,9.680458,-0.020172,0.449389,-0.893108,0.000166,-0.000010,0.672154,0.000435,-0.000089,1.474426,1.000000,0.000045,-0.000015,0.000001,0.000179,0.000010,0.676838
1790767591.814727,0.001728,-0.000955,-0.000013,0.008873,-0.004857,9.659332,-0.020100,0.449611,-0.892998,0.000166,-0.000010,0.672154,0.000435,-0.000089,1.474426,1.000000,0.000045,-0.000015,0.000001,0.000179,0.000010,0.676838
1790767591.818347,-0.000204,-0.001842,-0.000657,0.008781,0.003362,9.657483,-0.020100,0.449611,-0.892998,0.000166,-0.000010,0.672154,0.000435,-0.000089,1.474426,1.000000,0.000045,-0.000015,0.000001,0.000179,0.000010,0.676838
1790767591.822922,0.000173,-0.001079,0.000748,0.007304,0.000836,9.657958,-0.020100,0.449611,-0.892998,0.000166,-0.000010,0.672154,0.000435,-0.000089,1.474426,1.000000,0.000045,-0.000015,0.000001,0.000179,0.000010,0.676838
1790767591.826493,-0.000587,-0.000448,-0.000853,-0.001784,0.002620,9.624316,-0.020533,0.449511,-0.893039,0.000166,-0.000010,0.672154,0.000435,-0.000089,1.474426,1.000000,0.000045,-0.000015,0.000001,0.000179,0.000010,0.676838
1790767591.830921,0.000570,-0.001343,0.000297,-0.001257,-0.005594,9.584314,-0.020533,0.449511,-0.893039,0.000179,-0.000014,0.719267,0.000423,-0.000118,1.470010,1.000000,0.000045,-0.000019,-0.000000,0.000189,0.000008,0.706267
1790767591.834487,-0.000361,-0.000714,0.000963,-0.004479,0.011308,9.556124,-0.020310,0.449485,-0.893057,0.000179,-0.000014,0.719267,0.000423,-0.000118,1.470010,1.000000,0.000045,-0.000019,-0.000000,0.000189,0.000008,0.706267
1790767591.838046,-0.001714,-0.000697,-0.000185,-0.001614,-0.001460,9.549553,-0.020310,0.449485,-0.893057,0.000179,-0.000014,0.719267,0.000423,-0.000118,1.470010,1.000000,0.000045,-0.000019,-0.000000,0.000189,0.000008,0.706267
1790767591.842706,0.000943,-0.000020,-0.001949,-0.000267,0.006412,9.544007,-0.020310,0.449485,-0.893057,0.000179,-0.000014,0.719267,0.000423,-0.000118,1.470010,1.000000,0.000045,-0.000019,-0.000000,0.000189,0.000008,0.706267
1790767591.846387,0.000220,-0.000513,0.000063,0.004915,0.000050,9.505062,-0.020254,0.449494,-0.893054,0.000179,-0.000014,0.719267,0.000423,-0.000118,1.470010,1.000000,0.000045,-0.000019,-0.000000,0.000189,0.000008,0.706267
1790767591.850032,-0.001060,0.000652,-0.000497,0.007584,0.002910,9.514004,-0.020254,0.449494,-0.893054,0.000179,-0.000014,0.719267,0.000423,-0.000118,1.470010,1.000000,0.000042,-0.000021,-0.000001,0.000199,0.000004,0.735607
1790767591.854387,-0.001471,-0.000697,-0.000587,0.003308,-0.005152,9.501412,-0.020259,0.449646,-0.892977,0.000179,-0.000014,0.719267,0.000423,-0.000118,1.470010,1.000000,0.000042,-0.000021,-0.000001,0.000199,0.000004,0.735607
1790767591.858556,0.000032,-0.000131,-0.002189,0.008980,0.003273,9.502833,-0.020259,0.449646,-0.892977,0.000179,-0.000014,0.719267,0.000423,-0.000118,1.470010,1.000000,0.000042,-0.000021,-0.000001,0.000199,0.000004,0.735607
1790767591.862275,0.000436,-0.000122,0.000689,-0.000467,0.009406,9.493466,-0.020259,0.449646,-0.892977,0.000193,-0.000018,0.766157,0.000408,-0.000144,1.461190,1.000000,0.000042,-0.000021,-0.000001,0.000199,0.000004,0.735607
1790767591.866269,0.000195,0.000021,0.000099,0.004915,0.004064,9.477629,-0.020252,0.449411,-0.893096,0.000193,-0.000018,0.766157,0.000408,-0.000144,1.461190,1.000000,0.000042,-0.000021,-0.000001,0.000199,0.000004,0.735607
1790767591.869992,-0.001064,0.000021,-0.001708,0.002107,0.001243,9.487855,-0.020252,0.449411,-0.893096,0.000193,-0.000018,0.766157,0.000408,-0.000144,1.461190,1.000000,0.000038,-0.000023,-0.000002,0.000207,-0.000001,0.764831
1790767591.874315,0.000052,-0.000473,0.000412,0.008424,0.004121,9.453150,-0.020247,0.449707,-0.892947,0.000193,-0.000018,0.766157,0.000408,-0.000144,1.461190,1.000000,0.000038,-0.000023,-0.000002,0.000207,-0.000001,0.764831
1790767591.878325,-0.000300,-0.001054,0.002060,-0.006704,-0.001234,9.446299,-0.020247,0.449707,-0.892947,0.000193,-0.000018,0.766157,0.000408,-0.000144,1.461190,1.000000,0.000038,-0.000023,-0.000002,0.000207,-0.000001,0.764831
1790767591.881982,-0.000478,-0.000144,-0.000338,0.004709,0.001781,9.423479,-0.020247,0.449707,-0.892947,0.000193,-0.000018,0.766157,0.000408,-0.000144,1.461190,1.000000,0.000038,-0.000023,-0.000002,0.000207,-0.000001,0.764831
1790767591.885919,-0.000827,-0.000292,0.000211,-0.006070,0.002849,9.405221,-0.020343,0.449605,-0.892996,0.000193,-0.000018,0.766157,0.000408,-0.000144,1.461190,1.000000,0.000038,-0.000023,-0.000002,0.000207,-0.000001,0.764831
1790767591.891416,-0.000003,-0.000094,-0.000938,-0.014246,-0.006728,9.403445,-0.020343,0.449605,-0.892996,0.000193,-0.000018,0.766157,0.000408,-0.000144,1.461190,1.000000,0.000035,-0.000024,-0.000002,0.000216,-0.000006,0.793916
1790767591.894386,0.001477,0.000479,-0.000754,0.001748,0.001483,9.385106,-0.020179,0.449629,-0.892988,0.000193,-0.000018,0.766157,0.000408,-0.000144,1.461190,1.000000,0.000035,-0.000024,-0.000002,0.000216,-0.000006,0.793916
1790767591.899379,-0.001027,-0.000090,0.001060,-0.000050,-0.006308,9.366176,-0.020179,0.449629,-0.892988,0.000207,-0.000024,0.818505,0.000390,-0.000169,1.447762,1.000000,0.000035,-0.000024,-0.000002,0.000216,-0.000006,0.793916
1790767591.902261,0.000729,-0.000292,0.000648,-0.002715,-0.009422,9.382333,-0.020179,0.449629,-0.892988,0.000207,-0.000024,0.818505,0.000390,-0.000169,1.447762,1.000000,0.000035,-0.000024,-0.000002,0.000216,-0.000006,0.793916
1790767591.906724,0.000018,-0.000481,-0.000609,0.001411,0.004631,9.353926,-0.020088,0.449789,-0.892909,0.000207,-0.000024,0.818505,0.000390,-0.000169,1.447762,1.000000,0.000035,-0.000024,-0.000002,0.000216,-0.000006,0.793916
1790767591.910352,0.000868,-0.000340,0.000154,-0.000037,0.001990,9.324741,-0.020088,0.449789,-0.892909,0.000207,-0.000024,0.818505,0.000390,-0.000169,1.447762,1.000000,0.000032,-0.000025,-0.000002,0.000224,-0.000010,0.822835
1790767591.914344,0.002191,-0.000385,-0.000462,-0.010209,-0.008081,9.308962,-0.019993,0.449434,-0.893090,0.000207,-0.000024,0.818505,0.000390,-0.000169,1.447762,1.000000,0.000032,-0.000025,-0.000002,0.000224,-0.000010,0.822835
1790767591.918118,-0.000060,-0.000058,0.000433,0.015963,0.004173,9.280169,-0.019993,0.449434,-0.893090,0.000207,-0.000024,0.818505,0.000390,-0.000169,1.447762,1.000000,0.000032,-0.000025,-0.000002,0.000224,-0.000010,0.822835
1790767591.923306,-0.000248,0.000824,-0.000145,0.010361,0.002961,9.270030,-0.019993,0.449434,-0.893090,0.000207,-0.000024,0.818505,0.000390,-0.000169,1.447762,1.000000,0.000032,-0.000025,-0.000002,0.000224,-0.000010,0.822835
1790767591.926127,-0.000078,0.000398,-0.000544,0.004089,-0.009024,9.271058,-0.020000,0.449567,-0.893023,0.000207,-0.000024,0.818505,0.000390,-0.000169,1.447762,1.000000,0.000032,-0.000025,-0.000002,0.000224,-0.000010,0.822835
1790767591.930465,0.000373,0.000292,-0.000978,0.003192,0.005054,9.251762,-0.020000,0.449567,-0.893023,0.000219,-0.000030,0.864559,0.000374,-0.000188,1.431948,1.000000,0.000028,-0.000026,-0.000002,0.000232,-0.000016,0.851559
1790767591.934081,-0.001905,-0.001812,0.000559,0.003242,-0.005289,9.257934,-0.019910,0.449548,-0.893034,0.000219,-0.000030,0.864559,0.000374,-0.000188,1.431948,1.000000,0.000028,-0.000026,-0.000002,0.000232,-0.000016,0.851559
1790767591.938185,-0.001022,0.000234,-0.001819,0.002064,-0.012020,9.243060,-0.019910,0.449548,-0.893034,0.000219,-0.000030,0.864559,0.000374,-0.000188,1.431948,1.000000,0.000028,-0.000026,-0.000002,0.000232,-0.000016,0.851559
1790767591.942421,-0.000394,0.000462,0.000889,0.002350,-0.007339,9.235821,-0.019910,0.449548,-0.893034,0.000219,-0.000030,0.864559,0.000374,-0.000188,1.431948,1.000000,0.000028,-0.000026,-0.000002,0.000232,-0.000016,0.851559
1790767591.945959,-0.000114,0.000150,-0.000096,-0.003846,-0.001239,9.219799,-0.019862,0.450049,-0.892783,0.000219,-0.000030,0.864559,0.000374,-0.000188,1.431948,1.000000,0.000028,-0.000026,-0.000002,0.000232,-0.000016,0.851559
1790767591.950007,-0.001393,-0.000102,-0.000403,-0.004920,0.000326,9.220341,-0.019862,0.450049,-0.892783,0.000219,-0.000030,0.864559,0.000374,-0.000188,1.431948,1.000000,0.000022,-0.000027,-0.000002,0.000240,-0.000023,0.880063
1790767591.954216,-0.001265,0.001054,0.002828,0.012472,0.001782,9.212181,-0.020337,0.449859,-0.892868,0.000219,-0.000030,0.864559,0.000374,-0.000188,1.431948,1.000000,0.000022,-0.000027,-0.000002,0.000240,-0.000023,0.880063
1790767591.958473,-0.001075,0.001154,0.001034,-0.004241,0.013929,9.205682,-0.020337,0.449859,-0.892868,0.000219,-0.000030,0.864559,0.000374,-0.000188,1.431948,1.000000,0.000022,-0.000027,-0.000002,0.000240,-0.000023,0.880063
1790767591.961969,-0.001035,0.000490,-0.000635,-0.005364,-0.006088,9.205418,-0.020337,0.449859,-0.892868,0.000231,-0.000036,0.910053,0.000356,-0.000202,1.413426,1.000000,0.000022,-0.000027,-0.000002,0.000240,-0.000023,0.880063
1790767591.966163,0.000103,-0.000227,0.000419,0.012709,-0.016235,9.181891,-0.020221,0.449538,-0.893032,0.000231,-0.000036,0.910053,0.000356,-0.000202,1.413426,1.000000,0.000022,-0.000027,-0.000002,0.000240,-0.000023,0.880063
1790767591.970160,-0.000602,-0.000610,0.000283,-0.002300,0.002979,9.169216,-0.020221,0.449538,-0.893032,0.000231,-0.000036,0.910053,0.000356,-0.000202,1.413426,1.000000,0.000017,-0.000028,-0.000002,0.000248,-0.000030,0.908331
1790767591.974373,-0.000562,-0.000303,0.000311,0.003428,0.008463,9.156160,-0.020149,0.449851,-0.892876,0.000231,-0.000036,0.910053,0.000356,-0.000202,1.413426,1.000000,0.000017,-0.000028,-0.000002,0.000248,-0.000030,0.908331
1790767591.978215,-0.000871,-0.000198,-0.000987,0.004141,-0.005009,9.141132,-0.020149,0.449851,-0.892876,0.000231,-0.000036,0.910053,0.000356,-0.000202,1.413426,1.000000,0.000017,-0.000028,-0.000002,0.000248,-0.000030,0.908331
1790767591.982048,0.000671,0.000483,-0.000325,-0.006274,0.011074,9.131839,-0.020149,0.449851,-0.892876,0.000231,-0.000036,0.910053,0.000356,-0.000202,1.413426,1.000000,0.000017,-0.000028,-0.000002,0.000248,-0.000030,0.908331
1790767591.986075,0.000163,-0.001547,0.002021,0.009177,-0.004955,9.124755,-0.020321,0.449834,-0.892881,0.000231,-0.000036,0.910053,0.000356,-0.000202,1.413426,1.000000,0.000017,-0.000028,-0.000002,0.000248,-0.000030,0.908331
1790767591.989969,-0.000983,0.000599,-0.000105,-0.007612,-0.002492,9.123111,-0.020321,0.449834,-0.892881,0.000231,-0.000036,0.910053,0.000356,-0.000202,1.413426,1.000000,0.000012,-0.000029,-0.000003,0.000255,-0.000036,0.936344
1790767591.994032,-0.000198,-0.000725,0.000724,-0.001670,-0.016780,9.112055,-0.020240,0.449548,-0.893027,0.000242,-0.000042,0.954914,0.000338,-0.000210,1.392501,1.000000,0.000012,-0.000029,-0.000003,0.000255,-0.000036,0.936344
1790767591.997773,-0.001689,0.001163,-0.000980,-0.005580,-0.005524,9.112651,-0.020240,0.449548,-0.893027,0.000242,-0.000042,0.954914,0.000338,-0.000210,1.392501,1.000000,0.000012,-0.000029,-0.000003,0.000255,-0.000036,0.936344
1790767592.001858,-0.000141,0.000484,-0.000972,-0.008040,0.010439,9.104992,-0.020240,0.449548,-0.893027,0.000242,-0.000042,0.954914,0.000338,-0.000210,1.392501,1.000000,0.000012,-0.000029,-0.000003,0.000255,-0.000036,0.936344
1790767592.006040,-0.001064,-0.000080,-0.001470,0.002696,0.017148,9.110895,-0.020145,0.449879,-0.892862,0.000242,-0.000042,0.954914,0.000338,-0.000210,1.392501,1.000000,0.000012,-0.000029,-0.000003,0.000255,-0.000036,0.936344
1790767592.010230,-0.000295,-0.000609,0.001677,0.008183,0.003023,9.118754,-0.020145,0.449879,-0.892862,0.000242,-0.000042,0.954914,0.000338,-0.000210,1.392501,1.000000,0.000007,-0.000030,-0.000003,0.000262,-0.000042,0.964083
1790767592.014016,-0.001633,0.000987,-0.001128,0.009175,0.011448,9.126797,-0.019846,0.449795,-0.892911,0.000242,-0.000042,0.954914,0.000338,-0.000210,1.392501,1.000000,0.000007,-0.000030,-0.000003,0.000262,-0.000042,0.964083
1790767592.017777,-0.000766,-0.000023,0.000188,0.005089,0.001602,9.085576,-0.019846,0.449795,-0.892911,0.000242,-0.000042,0.954914,0.000338,-0.000210,1.392501,1.000000,0.000007,-0.000030,-0.000003,0.000262,-0.000042,0.964083
1790767592.021973,-0.000664,-0.000453,0.001195,0.001927,0.005253,9.080613,-0.019846,0.449795,-0.892911,0.000242,-0.000042,0.954914,0.000338,-0.000210,1.392501,1.000000,0.000007,-0.000030,-0.000003,0.000262,-0.000042,0.964083
1790767592.026025,0.000585,-0.000109,0.000014,0.008436,0.002101,9.063160,-0.019757,0.449825,-0.892898,0.000242,-0.000042,0.954914,0.000338,-0.000210,1.392501,1.000000,0.000007,-0.000030,-0.000003,0.000262,-0.000042,0.964083
1790767592.030533,0.000903,-0.000233,0.000196,-0.003745,0.000106,9.048669,-0.019757,0.449825,-0.892898,0.000254,-0.000050,1.004542,0.000317,-0.000214,1.367034,1.000000,0.000004,-0.000031,-0.000003,0.000269,-0.000048,0.991542
1790767592.035892,-0.000200,0.000049,0.000862,-0.001594,0.007239,9.038173,-0.019908,0.449881,-0.892867,0.000254,-0.000050,1.004542,0.000317,-0.000214,1.367034,1.000000,0.000004,-0.000031,-0.000003,0.000269,-0.000048,0.991542
1790767592.039555,-0.001374,-0.001397,-0.000944,0.005147,-0.007955,9.025348,-0.019908,0.449881,-0.892867,0.000254,-0.000050,1.004542,0.000317,-0.000214,1.367034,1.000000,0.000004,-0.000031,-0.000003,0.000269,-0.000048,0.991542
1790767592.042375,-0.001773,-0.002109,-0.000575,-0.002173,0.001048,9.016570,-0.019908,0.449881,-0.892867,0.000254,-0.000050,1.004542,0.000317,-0.000214,1.367034,1.000000,0.000004,-0.000031,-0.000003,0.000269,-0.000048,0.991542
1790767592.046725,0.001271,0.000354,-0.000725,0.000263,0.001092,9.004090,-0.020066,0.449282,-0.893165,0.000254,-0.000050,1.004542,0.000317,-0.000214,1.367034,1.000000,0.000004,-0.000031,-0.000003,0.000269,-0.000048,0.991542
1790767592.050291,-0.000237,0.000064,-0.000558,-0.000838,0.008845,8.985031,-0.020066,0.449282,-0.893165,0.000254,-0.000050,1.004542,0.000317,-0.000214,1.367034,1.000000,0.000002,-0.000032,-0.000003,0.000276,-0.000054,1.018696
1790767592.055932,-0.000205,-0.000050,0.000048,-0.004385,-0.001225,8.982808,-0.020166,0.449542,-0.893032,0.000254,-0.000050,1.004542,0.000317,-0.000214,1.367034,1.000000,0.000002,-0.000032,-0.000003,0.000276,-0.000054,1.018696
1790767592.059188,-0.001105,0.000161,-0.000520,-0.000412,-0.001599,8.963726,-0.020166,0.449542,-0.893032,0.000254,-0.000050,1.004542,0.000317,-0.000214,1.367034,1.000000,0.000002,-0.000032,-0.000003,0.000276,-0.000054,1.018696
1790767592.062754,0.000217,0.000132,0.000009,0.000067,0.000009,8.946409,-0.020166,0.449542,-0.893032,0.000263,-0.000057,1.047832,0.000297,-0.000215,1.341299,1.000000,0.000002,-0.000032,-0.000003,0.000276,-0.000054,1.018696
1790767592.066155,-0.000556,0.000881,0.000073,0.005633,-0.016429,8.946313,-0.020018,0.449964,-0.892822,0.000263,-0.000057,1.047832,0.000297,-0.000215,1.341299,1.000000,0.000002,-0.000032,-0.000003,0.000276,-0.000054,1.018696
1790767592.070011,0.001099,-0.000050,-0.000161,-0.000605,0.002561,8.934946,-0.020018,0.449964,-0.892822,0.000263,-0.000057,1.047832,0.000297,-0.000215,1.341299,1.000000,-0.000000,-0.000031,-0.000003,0.000281,-0.000059,1.045521
1790767592.074317,0.000510,0.000113,0.001284,-0.002141,-0.001091,8.935304,-0.020374,0.449862,-0.892866,0.000263,-0.000057,1.047832,0.000297,-0.000215,1.341299,1.000000,-0.000000,-0.000031,-0.000003,0.000281,-0.000059,1.045521
1790767592.077960,0.000336,-0.000187,0.001527,0.014604,0.001891,8.903219,-0.020374,0.449862,-0.892866,0.000263,-0.000057,1.047832,0.000297,-0.000215,1.341299,1.000000,-0.000000,-0.000031,-0.000003,0.000281,-0.000059,1.045521
1790767592.081876,-0.000150,0.000232,0.000431,-0.014732,-0.006187,8.901533,-0.020374,0.449862,-0.892866,0.000263,-0.000057,1.047832,0.000297,-0.000215,1.341299,1.000000,-0.000000,-0.000031,-0.000003,0.000281,-0.000059,1.045521
1790767592.085823,-0.000308,-0.001042,-0.000580,-0.002380,0.001997,8.891749,-0.020234,0.449914,-0.892843,0.000263,-0.000057,1.047832,0.000297,-0.000215,1.341299,1.000000,-0.000000,-0.000031,-0.000003,0.000281,-0.000059,1.045521
1790767592.090434,-0.000189,0.000573,-0.000985,0.008661,-0.001818,8.895031,-0.020234,0.449914,-0.892843,0.000263,-0.000057,1.047832,0.000297,-0.000215,1.341299,1.000000,-0.000002,-0.000030,-0.000003,0.000287,-0.000064,1.071997
1790767592.094281,-0.001119,-0.000443,0.000651,0.003750,0.001085,8.872262,-0.020181,0.449826,-0.892888,0.000272,-0.000064,1.090248,0.000278,-0.000213,1.312773,1.000000,-0.000002,-0.000030,-0.000003,0.000287,-0.000064,1.071997
1790767592.098212,-0.001920,0.000702,-0.001025,0.003464,-0.003734,8.859938,-0.020181,0.449826,-0.892888,0.000272,-0.000064,1.090248,0.000278,-0.000213,1.312773,1.000000,-0.000002,-0.000030,-0.000003,0.000287,-0.000064,1.071997
1790767592.101876,0.001380,0.000334,-0.002198,0.003073,-0.003124,8.852480,-0.020181,0.449826,-0.892888,0.000272,-0.000064,1.090248,0.000278,-0.000213,1.312773,1.000000,-0.000002,-0.000030,-0.000003,0.000287,-0.000064,1.071997
1790767592.106197,-0.000552,-0.001213,0.000267,-0.003005,0.001845,8.839734,-0.020078,0.449529,-0.893040,0.000272,-0.000064,1.090248,0.000278,-0.000213,1.312773,1.000000,-0.000002,-0.000030,-0.000003,0.000287,-0.000064,1.071997
1790767592.110478,0.000405,0.000218,-0.000106,0.006977,0.008018,8.877733,-0.020078,0.449529,-0.893040,0.000272,-0.000064,1.090248,0.000278,-0.000213,1.312773,1.000000,-0.000004,-0.000028,-0.000003,0.000291,-0.000069,1.098101
1790767592.114113,-0.000886,-0.000315,0.000619,0.011388,-0.004206,8.873345,-0.020247,0.450019,-0.892789,0.000272,-0.000064,1.090248,0.000278,-0.000213,1.312773,1.000000,-0.000004,-0.000028,-0.000003,0.000291,-0.000069,1.098101
1790767592.118393,-0.001676,0.001587,-0.000423,0.002964,-0.004679,8.874127,-0.020247,0.450019,-0.892789,0.000272,-0.000064,1.090248,0.000278,-0.000213,1.312773,1.000000,-0.000004,-0.000028,-0.000003,0.000291,-0.000069,1.098101
1790767592.122123,-0.000088,0.000048,0.001284,-0.008041,0.004028,8.876818,-0.020247,0.450019,-0.892789,0.000272,-0.000064,1.090248,0.000278,-0.000213,1.312773,1.000000,-0.000004,-0.000028,-0.000003,0.000291,-0.000069,1.098101
1790767592.126876,0.000318,-0.000536,-0.000436,0.002952,0.002273,8.877555,-0.019978,0.449386,-0.893114,0.000281,-0.000071,1.131716,0.000260,-0.000211,1.282831,1.000000,-0.000004,-0.000028,-0.000003,0.000291,-0.000069,1.098101
1790767592.130012,0.000433,0.000801,0.000106,0.006478,-0.008067,8.852565,-0.019978,0.449386,-0.893114,0.000281,-0.000071,1.131716,0.000260,-0.000211,1.282831,1.000000,-0.000005,-0.000026,-0.000003,0.000295,-0.000074,1.123832
1790767592.134180,-0.000853,0.001135,-0.000454,0.006789,0.002595,8.848540,-0.020536,0.449477,-0.893056,0.000281,-0.000071,1.131716,0.000260,-0.000211,1.282831,1.000000,-0.000005,-0.000026,-0.000003,0.000295,-0.000074,1.123832
1790767592.138515,0.001729,0.001880,0.002161,0.016995,0.000410,8.848201,-0.020536,0.449477,-0.893056,0.000281,-0.000071,1.131716,0.000260,-0.000211,1.282831,1.000000,-0.000005,-0.000026,-0.000003,0.000295,-0.000074,1.123832
1790767592.142817,0.000247,0.000948,-0.000067,-0.011361,0.003638,8.845166,-0.020536,0.449477,-0.893056,0.000281,-0.000071,1.131716,0.000260,-0.000211,1.282831,1.000000,-0.000005,-0.000026,-0.000003,0.000295,-0.000074,1.123832
1790767592.146578,-0.000244,0.000573,-0.000315,0.000414,0.006836,8.874909,-0.019911,0.449761,-0.892927,0.000281,-0.000071,1.131716,0.000260,-0.000211,1.282831,1.000000,-0.000005,-0.000026,-0.000003,0.000295,-0.000074,1.123832
1790767592.150270,-0.002519,0.000395,-0.000228,0.002417,-0.007645,8.868253,-0.019911,0.449761,-0.892927,0.000281,-0.000071,1.131716,0.000260,-0.000211,1.282831,1.000000,-0.000007,-0.000024,-0.000003,0.000300,-0.000079,1.149187
1790767592.154359,0.001106,-0.000024,0.000143,-0.004893,0.001924,8.874460,-0.019708,0.449384,-0.893121,0.000281,-0.000071,1.131716,0.000260,-0.000211,1.282831,1.000000,-0.000007,-0.000024,-0.000003,0.000300,-0.000079,1.149187
1790767592.158739,-0.000863,-0.000101,0.000118,-0.001675,0.007733,8.850570,-0.019708,0.449384,-0.893121,0.000281,-0.000071,1.131716,0.000260,-0.000211,1.282831,1.000000,-0.000007,-0.000024,-0.000003,0.000300,-0.000079,1.149187
1790767592.162726,-0.000307,0.000627,-0.000416,0.003450,-0.005709,8.856266,-0.019708,0.449384,-0.893121,0.000290,-0.000078,1.177221,0.000243,-0.000206,1.248970,1.000000,-0.000007,-0.000024,-0.000003,0.000300,-0.000079,1.149187
1790767592.165980,-0.000442,0.000875,-0.000315,0.009671,0.004424,8.828249,-0.020182,0.449695,-0.892954,0.000290,-0.000078,1.177221,0.000243,-0.000206,1.248970,1.000000,-0.000007,-0.000024,-0.000003,0.000300,-0.000079,1.149187
1790767592.170087,-0.000599,-0.000261,0.000332,0.001283,0.003310,8.819008,-0.020182,0.449695,-0.892954,0.000290,-0.000078,1.177221,0.000243,-0.000206,1.248970,1.000000,-0.000009,-0.000024,-0.000003,0.000304,-0.000084,1.174165
1790767592.174141,-0.001258,-0.000033,0.000540,0.009767,-0.001740,8.827741,-0.020301,0.449925,-0.892836,0.000290,-0.000078,1.177221,0.000243,-0.000206,1.248970,1.000000,-0.000009,-0.000024,-0.000003,0.000304,-0.000084,1.174165
1790767592.178473,-0.000601,0.000126,0.000772,-0.003737,0.006035,8.825549,-0.020301,0.449925,-0.892836,0.000290,-0.000078,1.177221,0.000243,-0.000206,1.248970,1.000000,-0.000009,-0.000024,-0.000003,0.000304,-0.000084,1.174165
1790767592.181855,0.000238,-0.002070,-0.000491,-0.000333,0.003277,8.826713,-0.020301,0.449925,-0.892836,0.000290,-0.000078,1.177221,0.000243,-0.000206,1.248970,1.000000,-0.000009,-0.000024,-0.000003,0.000304,-0.000084,1.174165
1790767592.187334,-0.000544,-0.000909,0.000831,0.002361,-0.001612,8.845349,-0.019834,0.449931,-0.892843,0.000290,-0.000078,1.177221,0.000243,-0.000206,1.248970,1.000000,-0.000010,-0.000025,-0.000003,0.000308,-0.000088,1.193868
1790767592.190300,0.000127,-0.000746,-0.000244,-0.002938,0.003161,8.813617,-0.019834,0.449931,-0.892843,0.000290,-0.000078,1.177221,0.000243,-0.000206,1.248970,1.000000,-0.000010,-0.000025,-0.000003,0.000308,-0.000088,1.193868
1790767592.194421,0.001342,0.001157,0.001360,0.005161,-0.000907,8.783806,-0.020150,0.449468,-0.893069,0.000297,-0.000085,1.216626,0.000228,-0.000199,1.217657,1.000000,-0.000010,-0.000025,-0.000003,0.000308,-0.000088,1.193868
1790767592.198016,-0.000019,0.000092,0.000059,0.009368,0.007157,8.801258,-0.020150,0.449468,-0.893069,0.000297,-0.000085,1.216626,0.000228,-0.000199,1.217657,1.000000,-0.000010,-0.000025,-0.000003,0.000308,-0.000088,1.193868
1790767592.201941,0.000557,0.000500,-0.000445,-0.006834,0.011707,8.773468,-0.020150,0.449468,-0.893069,0.000297,-0.000085,1.216626,0.000228,-0.000199,1.217657,1.000000,-0.000010,-0.000025,-0.000003,0.000308,-0.000088,1.193868
1790767592.207081,0.000791,0.000263,0.000624,0.001164,0.000643,8.787738,-0.019978,0.450005,-0.892803,0.000297,-0.000085,1.216626,0.000228,-0.000199,1.217657,1.000000,-0.000010,-0.000025,-0.000003,0.000313,-0.000092,1.218140
1790767592.210117,0.000048,0.000735,0.000612,0.014461,-0.012263,8.766070,-0.019978,0.450005,-0.892803,0.000297,-0.000085,1.216626,0.000228,-0.000199,1.217657,1.000000,-0.000010,-0.000025,-0.000003,0.000313,-0.000092,1.218140
1790767592.214167,-0.000253,-0.002077,-0.000965,0.000051,-0.002369,8.772304,-0.019883,0.449309,-0.893155,0.000297,-0.000085,1.216626,0.000228,-0.000199,1.217657,1.000000,-0.000010,-0.000025,-0.000003,0.000313,-0.000092,1.218140
1790767592.218358,0.000484,0.000983,0.000865,-0.008225,0.005300,8.779877,-0.019883,0.449309,-0.893155,0.000297,-0.000085,1.216626,0.000228,-0.000199,1.217657,1.000000,-0.000010,-0.000025,-0.000003,0.000313,-0.000092,1.218140
1790767592.223723,-0.000316,0.000041,-0.000053,0.001473,0.002179,8.764974,-0.019883,0.449309,-0.893155,0.000297,-0.000085,1.216626,0.000228,-0.000199,1.217657,1.000000,-0.000010,-0.000025,-0.000003,0.000313,-0.000092,1.218140
1790767592.226737,-0.000663,-0.000008,-0.001222,0.005783,0.009038,8.752958,-0.020565,0.449301,-0.893144,0.000304,-0.000091,1.255001,0.000213,-0.000193,1.184785,1.000000,-0.000010,-0.000025,-0.000003,0.000317,-0.000096,1.242001
1790767592.230379,-0.001890,-0.001034,-0.000203,-0.002209,-0.010651,8.735172,-0.020565,0.449301,-0.893144,0.000304,-0.000091,1.255001,0.000213,-0.000193,1.184785,1.000000,-0.000010,-0.000025,-0.000003,0.000317,-0.000096,1.242001
1790767592.234286,0.000241,0.001301,0.001073,0.006959,0.004511,8.715154,-0.019928,0.449991,-0.892811,0.000304,-0.000091,1.255001,0.000213,-0.000193,1.184785,1.000000,-0.000010,-0.000025,-0.000003,0.000317,-0.000096,1.242001
1790767592.238821,-0.001507,-0.001013,-0.000620,0.001691,0.000268,8.723579,-0.019928,0.449991,-0.892811,0.000304,-0.000091,1.255001,0.000213,-0.000193,1.184785,1.000000,-0.000010,-0.000025,-0.000003,0.000317,-0.000096,1.242001
1790767592.242959,-0.000706,-0.000729,0.000265,0.000027,0.008834,8.732129,-0.019928,0.449991,-0.892811,0.000304,-0.000091,1.255001,0.000213,-0.000193,1.184785,1.000000,-0.000010,-0.000025,-0.000003,0.000317,-0.000096,1.242001
1790767592.247312,-0.000282,0.000357,-0.000765,0.002900,-0.006483,8.748203,-0.020033,0.449545,-0.893033,0.000304,-0.000091,1.255001,0.000213,-0.000193,1.184785,1.000000,-0.000011,-0.000024,-0.000003,0.000321,-0.000100,1.265441
1790767592.250197,0.000711,0.001423,-0.000326,-0.002191,0.005998,8.739241,-0.020033,0.449545,-0.893033,0.000304,-0.000091,1.255001,0.000213,-0.000193,1.184785,1.000000,-0.000011,-0.000024,-0.000003,0.000321,-0.000100,1.265441
1790767592.255208,0.000323,0.001168,-0.001421,0.001545,0.001498,8.743777,-0.020390,0.450041,-0.892775,0.000304,-0.000091,1.255001,0.000213,-0.000193,1.184785,1.000000,-0.000011,-0.000024,-0.000003,0.000321,-0.000100,1.265441
1790767592.258472,-0.000886,0.000454,0.001790,-0.003754,-0.007239,8.745263,-0.020390,0.450041,-0.892775,0.000311,-0.000097,1.292302,0.000198,-0.000186,1.150791,1.000000,-0.000011,-0.000024,-0.000003,0.000321,-0.000100,1.265441
1790767592.262517,0.001585,-0.001138,-0.000497,-0.004263,0.002599,8.744350,-0.020390,0.450041,-0.892775,0.000311,-0.000097,1.292302,0.000198,-0.000186,1.150791,1.000000,-0.000011,-0.000024,-0.000003,0.000321,-0.000100,1.265441
1790767592.266448,-0.000562,-0.000825,0.000968,-0.002233,-0.003807,8.735150,-0.020321,0.449239,-0.893181,0.000311,-0.000097,1.292302,0.000198,-0.000186,1.150791,1.000000,-0.000009,-0.000023,-0.000003,0.000324,-0.000103,1.288457
1790767592.270712,-0.000778,0.000011,-0.000896,0.000147,0.004167,8.743021,-0.020321,0.449239,-0.893181,0.000311,-0.000097,1.292302,0.000198,-0.000186,1.150791,1.000000,-0.000009,-0.000023,-0.000003,0.000324,-0.000103,1.288457
1790767592.274284,0.000342,0.000000,-0.001280,0.001782,0.004392,8.737613,-0.020108,0.449062,-0.893274,0.000311,-0.000097,1.292302,0.000198,-0.000186,1.150791,1.000000,-0.000009,-0.000023,-0.000003,0.000324,-0.000103,1.288457
1790767592.278505,0.000760,-0.001377,-0.000687,0.005517,-0.003535,8.718015,-0.020108,0.449062,-0.893274,0.000311,-0.000097,1.292302,0.000198,-0.000186,1.150791,1.000000,-0.000009,-0.000023,-0.000003,0.000324,-0.000103,1.288457
1790767592.282496,-0.001344,0.000345,0.000303,-0.002288,0.004002,8.721324,-0.020108,0.449062,-0.893274,0.000311,-0.000097,1.292302,0.000198,-0.000186,1.150791,1.000000,-0.000009,-0.000023,-0.000003,0.000324,-0.000103,1.288457
1790767592.286313,-0.000738,-0.000903,0.000618,-0.004171,-0.000601,8.735845,-0.020009,0.449327,-0.893143,0.000311,-0.000097,1.292302,0.000198,-0.000186,1.150791,1.000000,-0.000008,-0.000022,-0.000003,0.000328,-0.000106,1.311047
1790767592.291223,0.000318,-0.001392,-0.000481,-0.004178,0.001487,8.732590,-0.020009,0.449327,-0.893143,0.000311,-0.000097,1.292302,0.000198,-0.000186,1.150791,1.000000,-0.000008,-0.000022,-0.000003,0.000328,-0.000106,1.311047
1790767592.294407,0.000904,0.000590,-0.001495,0.008468,-0.003681,8.705368,-0.019637,0.449458,-0.893086,0.000318,-0.000103,1.332963,0.000183,-0.000179,1.112271,1.000000,-0.000008,-0.000022,-0.000003,0.000328,-0.000106,1.311047
1790767592.298460,0.000595,0.002418,0.000022,-0.002288,0.003698,8.716064,-0.019637,0.449458,-0.893086,0.000318,-0.000103,1.332963,0.000183,-0.000179,1.112271,1.000000,-0.000008,-0.000022,-0.000003,0.000328,-0.000106,1.311047
1790767592.306935,-0.000824,-0.000402,-0.000433,-0.004537,0.000068,8.711231,-0.020234,0.449569,-0.893016,0.000318,-0.000103,1.332963,0.000183,-0.000179,1.112271,1.000000,-0.000006,-0.000020,-0.000003,0.000330,-0.000109,1.333206
1790767592.308167,-0.000824,-0.000402,-0.000433,-0.004537,0.000068,8.711231,-0.020234,0.449569,-0.893016,0.000318,-0.000103,1.332963,0.000183,-0.000179,1.112271,1.000000,-0.000006,-0.000020,-0.000003,0.000330,-0.000109,1.333206
1790767592.310377,0.000112,0.000242,0.000048,0.001638,-0.000327,8.701646,-0.020234,0.449569,-0.893016,0.000318,-0.000103,1.332963,0.000183,-0.000179,1.112271,1.000000,-0.000006,-0.000020,-0.000003,0.000330,-0.000109,1.333206
1790767592.314604,0.000933,-0.001018,0.000697,-0.001102,0.006987,8.696716,-0.020146,0.449577,-0.893015,0.000318,-0.000103,1.332963,0.000183,-0.000179,1.112271,1.000000,-0.000006,-0.000020,-0.000003,0.000330,-0.000109,1.333206
1790767592.318003,0.001347,-0.000444,0.001716,0.000395,-0.006861,8.693400,-0.020146,0.449577,-0.893015,0.000318,-0.000103,1.332963,0.000183,-0.000179,1.112271,1.000000,-0.000006,-0.000020,-0.000003,0.000330,-0.000109,1.333206
1790767592.322931,-0.000377,0.000360,-0.000221,-0.004618,0.008481,8.695758,-0.020146,0.449577,-0.893015,0.000318,-0.000103,1.332963,0.000183,-0.000179,1.112271,1.000000,-0.000006,-0.000020,-0.000003,0.000330,-0.000109,1.333206
1790767592.326442,0.000321,0.000619,-0.001844,-0.006234,-0.002046,8.695604,-0.020101,0.449363,-0.893123,0.000323,-0.000109,1.367925,0.000172,-0.000175,1.077120,1.000000,-0.000005,-0.000019,-0.000003,0.000334,-0.000112,1.354925
1790767592.330800,0.000334,0.001676,-0.000441,-0.006501,0.005841,8.668150,-0.020101,0.449363,-0.893123,0.000323,-0.000109,1.367925,0.000172,-0.000175,1.077120,1.000000,-0.000005,-0.000019,-0.000003,0.000334,-0.000112,1.354925
1790767592.334390,0.000068,-0.001123,0.000593,0.004272,0.017295,8.669207,-0.020749,0.449552,-0.893013,0.000323,-0.000109,1.367925,0.000172,-0.000175,1.077120,1.000000,-0.000005,-0.000019,-0.000003,0.000334,-0.000112,1.354925
1790767592.338511,-0.000310,0.000951,-0.000011,0.002247,-0.003170,8.664457,-0.020749,0.449552,-0.893013,0.000323,-0.000109,1.367925,0.000172,-0.000175,1.077120,1.000000,-0.000005,-0.000019,-0.000003,0.000334,-0.000112,1.354925
1790767592.342487,-0.002183,0.000236,0.000687,-0.002249,0.009935,8.660514,-0.020749,0.449552,-0.893013,0.000323,-0.000109,1.367925,0.000172,-0.000175,1.077120,1.000000,-0.000005,-0.000019,-0.000003,0.000334,-0.000112,1.354925
1790767592.346552,0.000988,-0.001380,-0.000399,-0.002722,0.009345,8.668072,-0.019920,0.449705,-0.892955,0.000323,-0.000109,1.367925,0.000172,-0.000175,1.077120,1.000000,-0.000006,-0.000020,-0.000003,0.000338,-0.000115,1.376197
1790767592.350358,0.000336,0.000376,-0.000310,-0.013021,0.004733,8.677379,-0.019920,0.449705,-0.892955,0.000323,-0.000109,1.367925,0.000172,-0.000175,1.077120,1.000000,-0.000006,-0.000020,-0.000003,0.000338,-0.000115,1.376197
1790767592.354443,-0.000725,0.000941,-0.000383,0.004862,-0.006846,8.671445,-0.020198,0.449540,-0.893032,0.000323,-0.000109,1.367925,0.000172,-0.000175,1.077120,1.000000,-0.000006,-0.000020,-0.000003,0.000338,-0.000115,1.376197
1790767592.358590,0.000871,0.000354,-0.001336,0.000460,-0.003601,8.692149,-0.020198,0.449540,-0.893032,0.000329,-0.000115,1.401744,0.000160,-0.000172,1.041111,1.000000,-0.000006,-0.000020,-0.000003,0.000338,-0.000115,1.376197
1790767592.362258,0.000396,0.001424,0.000045,-0.013289,0.005054,8.688115,-0.020198,0.449540,-0.893032,0.000329,-0.000115,1.401744,0.000160,-0.000172,1.041111,1.000000,-0.000006,-0.000020,-0.000003,0.000338,-0.000115,1.376197
1790767592.366248,-0.000216,0.000399,-0.001833,-0.001489,-0.005518,8.688365,-0.019916,0.449799,-0.892908,0.000329,-0.000115,1.401744,0.000160,-0.000172,1.041111,1.000000,-0.000007,-0.000023,-0.000002,0.000342,-0.000120,1.397019
1790767592.370882,0.000126,-0.001167,0.000783,-0.005208,-0.005795,8.690398,-0.019916,0.449799,-0.892908,0.000329,-0.000115,1.401744,0.000160,-0.000172,1.041111,1.000000,-0.000007,-0.000023,-0.000002,0.000342,-0.000120,1.397019
1790767592.375092,-0.000565,-0.000284,0.000762,-0.000878,-0.006108,8.694393,-0.020179,0.449543,-0.893031,0.000329,-0.000115,1.401744,0.000160,-0.000172,1.041111,1.000000,-0.000007,-0.000023,-0.000002,0.000342,-0.000120,1.397019
1790767592.378282,0.000336,0.000029,-0.000064,0.005198,0.003827,8.689868,-0.020179,0.449543,-0.893031,0.000329,-0.000115,1.401744,0.000160,-0.000172,1.041111,1.000000,-0.000007,-0.000023,-0.000002,0.000342,-0.000120,1.397019
1790767592.382092,-0.000986,-0.000698,-0.000083,-0.008173,0.004439,8.689848,-0.020179,0.449543,-0.893031,0.000329,-0.000115,1.401744,0.000160,-0.000172,1.041111,1.000000,-0.000007,-0.000023,-0.000002,0.000342,-0.000120,1.397019
1790767592.389312,-0.000643,-0.000372,-0.000401,0.004062,0.004142,8.694130,-0.020024,0.449555,-0.893028,0.000329,-0.000115,1.401744,0.000160,-0.000172,1.041111,1.000000,-0.000010,-0.000027,-0.000002,0.000347,-0.000124,1.417399
1790767592.390678,0.000196,0.000980,-0.001373,-0.004882,0.004181,8.687418,-0.020024,0.449555,-0.893028,0.000334,-0.000120,1.434421,0.000146,-0.000167,1.005641,1.000000,-0.000010,-0.000027,-0.000002,0.000347,-0.000124,1.417399
1790767592.395224,-0.001135,-0.000593,0.001138,0.006681,-0.006193,8.678358,-0.020189,0.450120,-0.892740,0.000334,-0.000120,1.434421,0.000146,-0.000167,1.005641,1.000000,-0.000010,-0.000027,-0.000002,0.000347,-0.000124,1.417399
1790767592.398403,-0.002165,-0.000849,-0.000281,-0.005964,0.001138,8.682046,-0.020189,0.450120,-0.892740,0.000334,-0.000120,1.434421,0.000146,-0.000167,1.005641,1.000000,-0.000010,-0.000027,-0.000002,0.000347,-0.000124,1.417399
1790767592.402164,0.000145,0.000215,-0.000605,-0.003378,0.002541,8.677243,-0.020189,0.450120,-0.892740,0.000334,-0.000120,1.434421,0.000146,-0.000167,1.005641,1.000000,-0.000010,-0.000027,-0.000002,0.000347,-0.000124,1.417399
1790767592.406920,0.000839,0.000554,0.000294,-0.008684,0.008199,8.685133,-0.020232,0.449367,-0.893118,0.000334,-0.000120,1.434421,0.000146,-0.000167,1.005641,1.000000,-0.000012,-0.000031,-0.000001,0.000352,-0.000128,1.437333
1790767592.410452,0.000106,-0.000024,-0.000075,0.006047,-0.001690,8.682023,-0.020232,0.449367,-0.893118,0.000334,-0.000120,1.434421,0.000146,-0.000167,1.005641,1.000000,-0.000012,-0.000031,-0.000001,0.000352,-0.000128,1.437333
1790767592.414590,0.000595,-0.000988,0.001215,-0.016030,-0.005160,8.684830,-0.020364,0.449538,-0.893029,0.000334,-0.000120,1.434421,0.000146,-0.000167,1.005641,1.000000,-0.000012,-0.000031,-0.000001,0.000352,-0.000128,1.437333
1790767592.418178,-0.001034,-0.001283,0.000807,0.006652,-0.000938,8.678015,-0.020364,0.449538,-0.893029,0.000334,-0.000120,1.434421,0.000146,-0.000167,1.005641,1.000000,-0.000012,-0.000031,-0.000001,0.000352,-0.000128,1.437333
1790767592.422380,-0.000748,-0.000073,-0.000708,-0.010190,0.013967,8.669633,-0.020364,0.449538,-0.893029,0.000334,-0.000120,1.434421,0.000146,-0.000167,1.005641,1.000000,-0.000012,-0.000031,-0.000001,0.000352,-0.000128,1.437333
1790767592.426611,-0.000644,-0.001283,-0.000013,0.002187,0.003071,8.678905,-0.020674,0.449416,-0.893083,0.000338,-0.000126,1.469818,0.000127,-0.000159,0.965212,1.000000,-0.000014,-0.000037,-0.000000,0.000357,-0.000133,1.456818
1790767592.430014,-0.000154,-0.000744,0.000264,0.003789,0.001695,8.662980,-0.020674,0.449416,-0.893083,0.000338,-0.000126,1.469818,0.000127,-0.000159,0.965212,1.000000,-0.000014,-0.000037,-0.000000,0.000357,-0.000133,1.456818
1790767592.434156,-0.000752,0.000456,0.000364,-0.000628,0.002899,8.656627,-0.019972,0.449827,-0.892892,0.000338,-0.000126,1.469818,0.000127,-0.000159,0.965212,1.000000,-0.000014,-0.000037,-0.000000,0.000357,-0.000133,1.456818
1790767592.438670,-0.000070,-0.001753,-0.000456,0.017189,0.004366,8.652636,-0.019972,0.449827,-0.892892,0.000338,-0.000126,1.469818,0.000127,-0.000159,0.965212,1.000000,-0.000014,-0.000037,-0.000000,0.000357,-0.000133,1.456818
1790767592.442252,0.001144,-0.000294,-0.000144,-0.004439,-0.001473,8.662735,-0.019972,0.449827,-0.892892,0.000338,-0.000126,1.469818,0.000127,-0.000159,0.965212,1.000000,-0.000014,-0.000037,-0.000000,0.000357,-0.000133,1.456818
1790767592.446230,-0.000650,0.000282,-0.000273,0.000498,0.003761,8.654819,-0.020259,0.449659,-0.892971,0.000338,-0.000126,1.469818,0.000127,-0.000159,0.965212,1.000000,-0.000017,-0.000043,0.000001,0.000362,-0.000137,1.475849
1790767592.450075,0.001005,-0.000400,-0.000132,-0.000851,0.009355,8.651044,-0.020259,0.449659,-0.892971,0.000338,-0.000126,1.469818,0.000127,-0.000159,0.965212,1.000000,-0.000017,-0.000043,0.000001,0.000362,-0.000137,1.475849
1790767592.454027,-0.000061,-0.001727,0.000496,0.004614,-0.004302,8.658793,-0.020187,0.449741,-0.892931,0.000338,-0.000126,1.469818,0.000127,-0.000159,0.965212,1.000000,-0.000017,-0.000043,0.000001,0.000362,-0.000137,1.475849
1790767592.458570,0.000039,0.000023,0.000099,-0.012218,0.007465,8.645447,-0.020187,0.449741,-0.892931,0.000342,-0.000131,1.500048,0.000104,-0.000150,0.928688,1.000000,-0.000017,-0.000043,0.000001,0.000362,-0.000137,1.475849
1790767592.462085,-0.000293,-0.000632,-0.000774,0.001059,0.004346,8.658612,-0.020187,0.449741,-0.892931,0.000342,-0.000131,1.500048,0.000104,-0.000150,0.928688,1.000000,-0.000017,-0.000043,0.000001,0.000362,-0.000137,1.475849
1790767592.466480,-0.000648,0.000467,-0.000278,0.000906,0.004478,8.645616,-0.020019,0.449531,-0.893041,0.000342,-0.000131,1.500048,0.000104,-0.000150,0.928688,1.000000,-0.000019,-0.000048,0.000001,0.000367,-0.000141,1.494423
1790767592.470071,-0.000851,-0.000776,0.000203,-0.007877,-0.006629,8.651775,-0.020019,0.449531,-0.893041,0.000342,-0.000131,1.500048,0.000104,-0.000150,0.928688,1.000000,-0.000019,-0.000048,0.000001,0.000367,-0.000141,1.494423
1790767592.474307,0.000131,-0.001463,0.000454,0.000675,-0.007832,8.640942,-0.020120,0.449775,-0.892915,0.000342,-0.000131,1.500048,0.000104,-0.000150,0.928688,1.000000,-0.000019,-0.000048,0.000001,0.000367,-0.000141,1.494423
1790767592.478302,-0.000008,0.000568,0.000877,-0.004250,-0.005823,8.655241,-0.020120,0.449775,-0.892915,0.000342,-0.000131,1.500048,0.000104,-0.000150,0.928688,1.000000,-0.000019,-0.000048,0.000001,0.000367,-0.000141,1.494423
1790767592.482291,-0.000350,0.000044,-0.001017,0.003063,-0.014969,8.645816,-0.020120,0.449775,-0.892915,0.000342,-0.000131,1.500048,0.000104,-0.000150,0.928688,1.000000,-0.000019,-0.000048,0.000001,0.000367,-0.000141,1.494423
1790767592.486596,-0.001156,-0.000712,0.000395,-0.005930,-0.007359,8.642509,-0.019777,0.449751,-0.892935,0.000342,-0.000131,1.500048,0.000104,-0.000150,0.928688,1.000000,-0.000022,-0.000054,0.000002,0.000371,-0.000145,1.512536
1790767592.490901,0.001348,-0.000085,-0.000999,0.007536,0.003614,8.651016,-0.019777,0.449751,-0.892935,0.000345,-0.000135,1.529104,0.000075,-0.000138,0.891834,1.000000,-0.000022,-0.000054,0.000002,0.000371,-0.000145,1.512536
1790767592.494433,-0.001552,-0.000207,-0.000372,-0.000713,0.000312,8.641405,-0.019764,0.449404,-0.893110,0.000345,-0.000135,1.529104,0.000075,-0.000138,0.891834,1.000000,-0.000022,-0.000054,0.000002,0.000371,-0.000145,1.512536
1790767592.498820,0.000024,-0.000372,0.000959,-0.000282,0.008976,8.645558,-0.019764,0.449404,-0.893110,0.000345,-0.000135,1.529104,0.000075,-0.000138,0.891834,1.000000,-0.000022,-0.000054,0.000002,0.000371,-0.000145,1.512536
1790767592.502017,0.001593,-0.000659,0.000165,0.000097,0.000723,8.642921,-0.019764,0.449404,-0.893110,0.000345,-0.000135,1.529104,0.000075,-0.000138,0.891834,1.000000,-0.000022,-0.000054,0.000002,0.000371,-0.000145,1.512536
1790767592.506742,0.000295,-0.002310,-0.000342,-0.007561,-0.001996,8.646585,-0.019869,0.449951,-0.892832,0.000345,-0.000135,1.529104,0.000075,-0.000138,0.891834,1.000000,-0.000024,-0.000058,0.000003,0.000375,-0.000149,1.530188
1790767592.511639,0.000059,-0.001756,0.000634,-0.012998,0.004486,8.646176,-0.019869,0.449951,-0.892832,0.000345,-0.000135,1.529104,0.000075,-0.000138,0.891834,1.000000,-0.000024,-0.000058,0.000003,0.000375,-0.000149,1.530188
1790767592.514486,-0.000615,-0.000020,0.000511,-0.004591,-0.004127,8.651182,-0.019911,0.449954,-0.892830,0.000345,-0.000135,1.529104,0.000075,-0.000138,0.891834,1.000000,-0.000024,-0.000058,0.000003,0.000375,-0.000149,1.530188
1790767592.518115,-0.000216,0.000182,-0.001202,0.000009,-0.001660,8.664434,-0.019911,0.449954,-0.892830,0.000345,-0.000135,1.529104,0.000075,-0.000138,0.891834,1.000000,-0.000024,-0.000058,0.000003,0.000375,-0.000149,1.530188
1790767592.522059,-0.000411,0.000081,0.000477,0.000105,-0.000342,8.665755,-0.019911,0.449954,-0.892830,0.000347,-0.000140,1.556977,0.000042,-0.000124,0.855006,1.000000,-0.000024,-0.000058,0.000003,0.000375,-0.000149,1.530188
1790767592.526524,0.000016,0.000595,0.001379,-0.002887,0.001223,8.666726,-0.019990,0.449645,-0.892983,0.000347,-0.000140,1.556977,0.000042,-0.000124,0.855006,1.000000,-0.000027,-0.000061,0.000004,0.000377,-0.000153,1.547379
1790767592.530772,-0.001019,0.000193,-0.000419,0.004809,-0.002493,8.674340,-0.019990,0.449645,-0.892983,0.000347,-0.000140,1.556977,0.000042,-0.000124,0.855006,1.000000,-0.000027,-0.000061,0.000004,0.000377,-0.000153,1.547379
1790767592.534118,-0.001110,-0.000943,0.000460,0.000952,-0.002009,8.650693,-0.019924,0.449606,-0.893005,0.000347,-0.000140,1.556977,0.000042,-0.000124,0.855006,1.000000,-0.000027,-0.000061,0.000004,0.000377,-0.000153,1.547379
1790767592.539247,-0.001251,-0.000166,-0.001423,0.000035,0.000096,8.667861,-0.019924,0.449606,-0.893005,0.000347,-0.000140,1.556977,0.000042,-0.000124,0.855006,1.000000,-0.000027,-0.000061,0.000004,0.000377,-0.000153,1.547379
1790767592.542545,-0.000054,0.000340,0.001183,0.008770,-0.013741,8.700769,-0.019924,0.449606,-0.893005,0.000347,-0.000140,1.556977,0.000042,-0.000124,0.855006,1.000000,-0.000027,-0.000061,0.000004,0.000377,-0.000153,1.547379
1790767592.546993,0.000325,0.001122,0.000802,-0.020491,-0.001066,8.700573,-0.020235,0.449844,-0.892878,0.000347,-0.000140,1.556977,0.000042,-0.000124,0.855006,1.000000,-0.000029,-0.000063,0.000004,0.000379,-0.000156,1.564118
1790767592.550233,0.000455,0.000446,-0.000275,0.007405,-0.004317,8.730537,-0.020235,0.449844,-0.892878,0.000347,-0.000140,1.556977,0.000042,-0.000124,0.855006,1.000000,-0.000029,-0.000063,0.000004,0.000379,-0.000156,1.564118
1790767592.554661,0.000662,0.000112,-0.000838,0.010668,-0.000395,8.721297,-0.019882,0.449657,-0.892980,0.000347,-0.000140,1.556977,0.000042,-0.000124,0.855006,1.000000,-0.000029,-0.000063,0.000004,0.000379,-0.000156,1.564118
1790767592.558769,-0.000894,0.000735,-0.000053,0.003476,-0.001856,8.719552,-0.019882,0.449657,-0.892980,0.000347,-0.000144,1.586952,0.000003,-0.000106,0.815213,1.000000,-0.000029,-0.000063,0.000004,0.000379,-0.000156,1.564118
1790767592.562704,-0.000132,0.000230,-0.001007,0.009034,-0.007404,8.711153,-0.019882,0.449657,-0.892980,0.000347,-0.000144,1.586952,0.000003,-0.000106,0.815213,1.000000,-0.000029,-0.000063,0.000004,0.000379,-0.000156,1.564118
1790767592.566295,-0.000192,-0.001526,0.000900,0.006614,0.009296,8.716824,-0.020183,0.449955,-0.892823,0.000347,-0.000144,1.586952,0.000003,-0.000106,0.815213,1.000000,-0.000030,-0.000066,0.000005,0.000380,-0.000159,1.580422
1790767592.570150,-0.000691,0.000458,0.000172,0.002755,0.002925,8.702461,-0.020183,0.449955,-0.892823,0.000347,-0.000144,1.586952,0.000003,-0.000106,0.815213,1.000000,-0.000030,-0.000066,0.000005,0.000380,-0.000159,1.580422
1790767592.574835,-0.000597,-0.001081,0.000424,0.003229,-0.002992,8.722052,-0.020296,0.449562,-0.893019,0.000347,-0.000144,1.586952,0.000003,-0.000106,0.815213,1.000000,-0.000030,-0.000066,0.000005,0.000380,-0.000159,1.580422
1790767592.578159,-0.000839,0.000936,0.000277,0.005357,-0.001732,8.727196,-0.020296,0.449562,-0.893019,0.000347,-0.000144,1.586952,0.000003,-0.000106,0.815213,1.000000,-0.000030,-0.000066,0.000005,0.000380,-0.000159,1.580422
1790767592.583266,-0.001423,-0.000542,-0.000082,-0.001646,0.007423,8.736827,-0.020296,0.449562,-0.893019,0.000347,-0.000144,1.586952,0.000003,-0.000106,0.815213,1.000000,-0.000031,-0.000068,0.000005,0.000381,-0.000161,1.593152
1790767592.586323,-0.000288,0.000908,0.000985,0.003553,0.005766,8.749958,-0.020050,0.449629,-0.892991,0.000347,-0.000144,1.586952,0.000003,-0.000106,0.815213,1.000000,-0.000031,-0.000068,0.000005,0.000381,-0.000161,1.593152
1790767592.590490,-0.001586,-0.000144,-0.000830,0.007759,0.006143,8.736613,-0.020050,0.449629,-0.892991,0.000347,-0.000147,1.612416,-0.000034,-0.000088,0.780758,1.000000,-0.000031,-0.000068,0.000005,0.000381,-0.000161,1.593152
1790767592.595119,0.000547,0.000118,-0.000846,0.004538,-0.003010,8.730628,-0.020127,0.449834,-0.892885,0.000347,-0.000147,1.612416,-0.000034,-0.000088,0.780758,1.000000,-0.000031,-0.000068,0.000005,0.000381,-0.000161,1.593152
1790767592.599293,0.000182,0.000422,0.000405,0.005458,-0.001290,8.717296,-0.020127,0.449834,-0.892885,0.000347,-0.000147,1.612416,-0.000034,-0.000088,0.780758,1.000000,-0.000031,-0.000068,0.000005,0.000381,-0.000161,1.593152
1790767592.602273,0.000609,-0.000112,-0.000260,0.004726,0.002481,8.709043,-0.020127,0.449834,-0.892885,0.000347,-0.000147,1.612416,-0.000034,-0.000088,0.780758,1.000000,-0.000030,-0.000070,0.000006,0.000381,-0.000162,1.608681
1790767592.607328,0.000069,-0.001048,-0.000078,0.005758,-0.005933,8.721992,-0.019893,0.449908,-0.892853,0.000347,-0.000147,1.612416,-0.000034,-0.000088,0.780758,1.000000,-0.000030,-0.000070,0.000006,0.000381,-0.000162,1.608681
1790767592.610202,0.000399,0.001763,-0.000278,0.011674,-0.000110,8.729114,-0.019893,0.449908,-0.892853,0.000347,-0.000147,1.612416,-0.000034,-0.000088,0.780758,1.000000,-0.000030,-0.000070,0.000006,0.000381,-0.000162,1.608681
1790767592.614443,-0.000665,-0.000028,-0.000349,0.013005,0.002637,8.748354,-0.020107,0.449652,-0.892977,0.000347,-0.000147,1.612416,-0.000034,-0.000088,0.780758,1.000000,-0.000030,-0.000070,0.000006,0.000381,-0.000162,1.608681
1790767592.618593,0.000491,-0.000396,0.000280,-0.012644,-0.000782,8.757827,-0.020107,0.449652,-0.892977,0.000347,-0.000147,1.612416,-0.000034,-0.000088,0.780758,1.000000,-0.000030,-0.000070,0.000006,0.000381,-0.000162,1.608681
1790767592.622826,-0.000207,-0.002502,0.001986,0.001050,-0.004252,8.739376,-0.020107,0.449652,-0.892977,0.000345,-0.000149,1.636781,-0.000074,-0.000071,0.746485,1.000000,-0.000028,-0.000073,0.000006,0.000381,-0.000163,1.623780
1790767592.626826,0.001774,0.000260,0.001242,-0.002301,-0.000596,8.729667,-0.020398,0.449581,-0.893007,0.000345,-0.000149,1.636781,-0.000074,-0.000071,0.746485,1.000000,-0.000028,-0.000073,0.000006,0.000381,-0.000163,1.623780
1790767592.630411,-0.000740,-0.000098,-0.002193,0.006093,0.003050,8.712466,-0.020398,0.449581,-0.893007,0.000345,-0.000149,1.636781,-0.000074,-0.000071,0.746485,1.000000,-0.000028,-0.000073,0.000006,0.000381,-0.000163,1.623780
1790767592.634513,-0.000153,-0.000170,0.001094,-0.004841,-0.000305,8.717051,-0.020134,0.449720,-0.892943,0.000345,-0.000149,1.636781,-0.000074,-0.000071,0.746485,1.000000,-0.000028,-0.000073,0.000006,0.000381,-0.000163,1.623780
1790767592.640852,-0.000044,0.000257,-0.000254,0.004314,-0.000344,8.728082,-0.020134,0.449720,-0.892943,0.000345,-0.000149,1.636781,-0.000074,-0.000071,0.746485,1.000000,-0.000028,-0.000073,0.000006,0.000381,-0.000163,1.623780
1790767592.642277,-0.000271,0.000726,-0.000325,-0.011312,-0.006343,8.736513,-0.020134,0.449720,-0.892943,0.000345,-0.000149,1.636781,-0.000074,-0.000071,0.746485,1.000000,-0.000027,-0.000077,0.000006,0.000381,-0.000164,1.638452
1790767592.646652,0.000583,-0.001147,-0.001093,0.008607,0.006262,8.749161,-0.019837,0.449891,-0.892863,0.000345,-0.000149,1.636781,-0.000074,-0.000071,0.746485,1.000000,-0.000027,-0.000077,0.000006,0.000381,-0.000164,1.638452
1790767592.649980,0.000345,-0.000558,-0.001255,-0.007012,-0.002522,8.750111,-0.019837,0.449891,-0.892863,0.000345,-0.000149,1.636781,-0.000074,-0.000071,0.746485,1.000000,-0.000027,-0.000077,0.000006,0.000381,-0.000164,1.638452
1790767592.653998,0.001619,0.000561,-0.000223,0.007286,-0.004315,8.748322,-0.019617,0.449945,-0.892841,0.000342,-0.000151,1.660051,-0.000116,-0.000055,0.712362,1.000000,-0.000027,-0.000077,0.000006,0.000381,-0.000164,1.638452
1790767592.658375,0.000938,-0.000336,-0.001339,0.011191,-0.007489,8.733620,-0.019617,0.449945,-0.892841,0.000342,-0.000151,1.660051,-0.000116,-0.000055,0.712362,1.000000,-0.000027,-0.000077,0.000006,0.000381,-0.000164,1.638452
1790767592.662552,-0.001214,-0.000009,-0.000594,0.000964,-0.013118,8.734180,-0.019617,0.449945,-0.892841,0.000342,-0.000151,1.660051,-0.000116,-0.000055,0.712362,1.000000,-0.000026,-0.000080,0.000007,0.000380,-0.000164,1.652699
1790767592.666221,-0.000798,-0.000273,-0.000943,-0.008437,-0.000688,8.728714,-0.020228,0.449944,-0.892828,0.000342,-0.000151,1.660051,-0.000116,-0.000055,0.712362,1.000000,-0.000026,-0.000080,0.000007,0.000380,-0.000164,1.652699
1790767592.669840,-0.000613,-0.000251,0.000297,0.000986,-0.003102,8.747539,-0.020228,0.449944,-0.892828,0.000342,-0.000151,1.660051,-0.000116,-0.000055,0.712362,1.000000,-0.000026,-0.000080,0.000007,0.000380,-0.000164,1.652699
1790767592.674710,0.001316,-0.000017,-0.000141,-0.001713,-0.002726,8.746949,-0.019894,0.449609,-0.893004,0.000342,-0.000151,1.660051,-0.000116,-0.000055,0.712362,1.000000,-0.000026,-0.000080,0.000007,0.000380,-0.000164,1.652699
1790767592.678359,-0.000673,0.000004,0.000994,0.008949,0.001806,8.749733,-0.019894,0.449609,-0.893004,0.000342,-0.000151,1.660051,-0.000116,-0.000055,0.712362,1.000000,-0.000026,-0.000080,0.000007,0.000380,-0.000164,1.652699
1790767592.682241,-0.000229,-0.000682,-0.000497,-0.000774,-0.005603,8.755770,-0.019894,0.449609,-0.893004,0.000342,-0.000151,1.660051,-0.000116,-0.000055,0.712362,1.000000,-0.000023,-0.000084,0.000008,0.000379,-0.000164,1.666519
1790767592.686018,-0.000574,0.000165,0.001391,-0.007579,0.000238,8.758613,-0.020016,0.449786,-0.892912,0.000342,-0.000151,1.660051,-0.000116,-0.000055,0.712362,1.000000,-0.000023,-0.000084,0.000008,0.000379,-0.000164,1.666519
1790767592.690155,0.002051,-0.001202,-0.000051,-0.002344,0.001274,8.763138,-0.020016,0.449786,-0.892912,0.000337,-0.000153,1.684930,-0.000167,-0.000038,0.674269,1.000000,-0.000023,-0.000084,0.000008,0.000379,-0.000164,1.666519
1790767592.694512,0.000054,-0.000385,0.000478,0.004784,0.002659,8.757220,-0.019907,0.449520,-0.893048,0.000337,-0.000153,1.684930,-0.000167,-0.000038,0.674269,1.000000,-0.000023,-0.000084,0.000008,0.000379,-0.000164,1.666519
1790767592.697903,-0.001308,-0.001604,-0.001665,0.011399,0.004139,8.760869,-0.019907,0.449520,-0.893048,0.000337,-0.000153,1.684930,-0.000167,-0.000038,0.674269,1.000000,-0.000023,-0.000084,0.000008,0.000379,-0.000164,1.666519
1790767592.702369,0.000012,-0.001615,-0.000436,-0.007310,0.002992,8.763473,-0.019907,0.449520,-0.893048,0.000337,-0.000153,1.684930,-0.000167,-0.000038,0.674269,1.000000,-0.000020,-0.000087,0.000008,0.000377,-0.000163,1.679921
1790767592.708248,0.002078,0.000530,-0.000858,0.003348,-0.000085,8.769153,-0.020223,0.449913,-0.892843,0.000337,-0.000153,1.684930,-0.000167,-0.000038,0.674269,1.000000,-0.000020,-0.000087,0.000008,0.000377,-0.000163,1.679921
1790767592.710126,-0.000631,0.000574,-0.000448,-0.009707,-0.002709,8.762492,-0.020223,0.449913,-0.892843,0.000337,-0.000153,1.684930,-0.000167,-0.000038,0.674269,1.000000,-0.000020,-0.000087,0.000008,0.000377,-0.000163,1.679921
1790767592.715064,-0.001219,-0.001245,0.001022,0.008091,-0.007121,8.777255,-0.020023,0.449774,-0.892918,0.000337,-0.000153,1.684930,-0.000167,-0.000038,0.674269,1.000000,-0.000020,-0.000087,0.000008,0.000377,-0.000163,1.679921
1790767592.718314,0.000147,-0.001486,0.001823,0.007532,0.000636,8.783200,-0.020023,0.449774,-0.892918,0.000337,-0.000153,1.684930,-0.000167,-0.000038,0.674269,1.000000,-0.000020,-0.000087,0.000008,0.000377,-0.000163,1.679921
1790767592.723608,0.000754,0.000958,-0.000383,0.004713,-0.003029,8.783988,-0.020023,0.449774,-0.892918,0.000331,-0.000154,1.705912,-0.000216,-0.000027,0.641364,1.000000,-0.000014,-0.000088,0.000009,0.000374,-0.000161,1.692912
1790767592.726732,0.000869,0.001271,0.000531,-0.002679,-0.012564,8.783934,-0.019875,0.449700,-0.892958,0.000331,-0.000154,1.705912,-0.000216,-0.000027,0.641364,1.000000,-0.000014,-0.000088,0.000009,0.000374,-0.000161,1.692912
1790767592.730452,-0.000424,0.000979,-0.000035,0.004673,0.001357,8.781234,-0.019875,0.449700,-0.892958,0.000331,-0.000154,1.705912,-0.000216,-0.000027,0.641364,1.000000,-0.000014,-0.000088,0.000009,0.000374,-0.000161,1.692912
1790767592.734077,0.001105,0.000756,0.000338,-0.002049,-0.001528,8.796854,-0.019883,0.449972,-0.892821,0.000331,-0.000154,1.705912,-0.000216,-0.000027,0.641364,1.000000,-0.000014,-0.000088,0.000009,0.000374,-0.000161,1.692912
1790767592.738835,-0.000149,0.000941,-0.001273,0.004135,0.002172,8.808116,-0.019883,0.449972,-0.892821,0.000331,-0.000154,1.705912,-0.000216,-0.000027,0.641364,1.000000,-0.000014,-0.000088,0.000009,0.000374,-0.000161,1.692912
1790767592.742574,0.000786,0.000417,-0.000918,-0.005834,0.001043,8.824661,-0.019883,0.449972,-0.892821,0.000331,-0.000154,1.705912,-0.000216,-0.000027,0.641364,1.000000,-0.000006,-0.000086,0.000009,0.000368,-0.000157,1.705498
1790767592.746230,0.000085,0.000450,-0.001308,0.000917,-0.007809,8.825137,-0.020041,0.449936,-0.892836,0.000331,-0.000154,1.705912,-0.000216,-0.000027,0.641364,1.000000,-0.000006,-0.000086,0.000009,0.000368,-0.000157,1.705498
1790767592.750140,0.000746,0.000348,0.000869,-0.012039,-0.018954,8.814315,-0.020041,0.449936,-0.892836,0.000331,-0.000154,1.705912,-0.000216,-0.000027,0.641364,1.000000,-0.000006,-0.000086,0.000009,0.000368,-0.000157,1.705498
1790767592.754249,0.000595,-0.000006,-0.000920,0.007598,0.009546,8.815422,-0.020237,0.449514,-0.893044,0.000323,-0.000155,1.725860,-0.000265,-0.000021,0.609568,1.000000,-0.000006,-0.000086,0.000009,0.000368,-0.000157,1.705498
1790767592.758442,0.000800,0.000113,0.000151,-0.002011,0.003556,8.810872,-0.020237,0.449514,-0.893044,0.000323,-0.000155,1.725860,-0.000265,-0.000021,0.609568,1.000000,-0.000006,-0.000086,0.000009,0.000368,-0.000157,1.705498
1790767592.762316,0.000989,0.000387,-0.000001,-0.011243,-0.004343,8.817661,-0.020237,0.449514,-0.893044,0.000323,-0.000155,1.725860,-0.000265,-0.000021,0.609568,1.000000,0.000005,-0.000084,0.000010,0.000362,-0.000152,1.717689
1790767592.766319,0.002579,0.001296,0.000117,-0.000666,-0.001052,8.831367,-0.019849,0.450018,-0.892799,0.000323,-0.000155,1.725860,-0.000265,-0.000021,0.609568,1.000000,0.000005,-0.000084,0.000010,0.000362,-0.000152,1.717689
1790767592.770082,0.000765,0.000569,0.000511,-0.006718,0.003007,8.825756,-0.019849,0.450018,-0.892799,0.000323,-0.000155,1.725860,-0.000265,-0.000021,0.609568,1.000000,0.000005,-0.000084,0.000010,0.000362,-0.000152,1.717689
1790767592.774551,0.001086,0.000076,-0.002278,0.000501,0.012214,8.823875,-0.020376,0.449776,-0.892909,0.000323,-0.000155,1.725860,-0.000265,-0.000021,0.609568,1.000000,0.000005,-0.000084,0.000010,0.000362,-0.000152,1.717689
1790767592.778324,0.000590,0.000613,0.000362,0.008075,0.000014,8.831828,-0.020376,0.449776,-0.892909,0.000323,-0.000155,1.725860,-0.000265,-0.000021,0.609568,1.000000,0.000005,-0.000084,0.000010,0.000362,-0.000152,1.717689
1790767592.782100,0.001593,0.000695,0.001172,0.003624,-0.011719,8.840565,-0.020376,0.449776,-0.892909,0.000323,-0.000155,1.725860,-0.000265,-0.000021,0.609568,1.000000,0.000015,-0.000082,0.000011,0.000355,-0.000148,1.729491
1790767592.786311,0.000006,0.000177,0.000282,-0.001062,-0.010377,8.814020,-0.020131,0.449639,-0.892984,0.000314,-0.000155,1.744806,-0.000311,-0.000026,0.578479,1.000000,0.000015,-0.000082,0.000011,0.000355,-0.000148,1.729491
1790767592.791668,0.000494,0.000464,-0.001500,-0.003763,0.000408,8.836682,-0.020131,0.449639,-0.892984,0.000314,-0.000155,1.744806,-0.000311,-0.000026,0.578479,1.000000,0.000015,-0.000082,0.000011,0.000355,-0.000148,1.729491
1790767592.794546,0.000057,0.000336,-0.000699,-0.001497,0.004554,8.851609,-0.020461,0.449787,-0.892902,0.000314,-0.000155,1.744806,-0.000311,-0.000026,0.578479,1.000000,0.000015,-0.000082,0.000011,0.000355,-0.000148,1.729491
1790767592.798523,-0.001020,-0.001367,0.000112,-0.000106,-0.010119,8.866845,-0.020461,0.449787,-0.892902,0.000314,-0.000155,1.744806,-0.000311,-0.000026,0.578479,1.000000,0.000015,-0.000082,0.000011,0.000355,-0.000148,1.729491
1790767592.802129,0.000501,0.001127,0.000208,0.003901,0.001756,8.893693,-0.020461,0.449787,-0.892902,0.000314,-0.000155,1.744806,-0.000311,-0.000026,0.578479,1.000000,0.000023,-0.000080,0.000012,0.000348,-0.000145,1.740909
1790767592.806610,0.001172,0.000122,-0.000664,0.006623,-0.006061,8.883439,-0.020231,0.450014,-0.892792,0.000314,-0.000155,1.744806,-0.000311,-0.000026,0.578479,1.000000,0.000023,-0.000080,0.000012,0.000348,-0.000145,1.740909
1790767592.810950,0.002195,0.001380,0.000122,-0.006436,-0.012655,8.882862,-0.020231,0.450014,-0.892792,0.000314,-0.000155,1.744806,-0.000311,-0.000026,0.578479,1.000000,0.000023,-0.000080,0.000012,0.000348,-0.000145,1.740909
1790767592.814474,-0.000422,0.000301,0.000828,-0.001288,0.007137,8.865351,-0.019802,0.449343,-0.893140,0.000314,-0.000155,1.744806,-0.000311,-0.000026,0.578479,1.000000,0.000023,-0.000080,0.000012,0.000348,-0.000145,1.740909
1790767592.818587,-0.000417,-0.000014,0.000848,0.001543,-0.012739,8.870599,-0.019802,0.449343,-0.893140,0.000314,-0.000155,1.744806,-0.000311,-0.000026,0.578479,1.000000,0.000023,-0.000080,0.000012,0.000348,-0.000145,1.740909
1790767592.822655,0.000230,0.001155,0.000875,-0.007743,-0.000188,8.866384,-0.019802,0.449343,-0.893140,0.000301,-0.000157,1.764956,-0.000362,-0.000040,0.544872,1.000000,0.000031,-0.000077,0.000013,0.000339,-0.000141,1.751955
1790767592.826427,0.000725,-0.000431,-0.000086,-0.006765,-0.006461,8.854247,-0.020015,0.449647,-0.892982,0.000301,-0.000157,1.764956,-0.000362,-0.000040,0.544872,1.000000,0.000031,-0.000077,0.000013,0.000339,-0.000141,1.751955
1790767592.830412,-0.000973,0.000507,0.000761,0.001104,0.000359,8.859575,-0.020015,0.449647,-0.892982,0.000301,-0.000157,1.764956,-0.000362,-0.000040,0.544872,1.000000,0.000031,-0.000077,0.000013,0.000339,-0.000141,1.751955
1790767592.834342,0.001201,0.000550,-0.000889,-0.001828,-0.007623,8.859089,-0.020545,0.449906,-0.892839,0.000301,-0.000157,1.764956,-0.000362,-0.000040,0.544872,1.000000,0.000031,-0.000077,0.000013,0.000339,-0.000141,1.751955
1790767592.839659,0.000754,0.002570,0.000073,-0.009582,-0.000689,8.848591,-0.020545,0.449906,-0.892839,0.000301,-0.000157,1.764956,-0.000362,-0.000040,0.544872,1.000000,0.000031,-0.000077,0.000013,0.000339,-0.000141,1.751955
1790767592.842647,0.002348,0.000994,-0.000410,0.013677,-0.011063,8.854255,-0.020545,0.449906,-0.892839,0.000301,-0.000157,1.764956,-0.000362,-0.000040,0.544872,1.000000,0.000040,-0.000073,0.000014,0.000330,-0.000138,1.762627
1790767592.846476,0.000074,0.001579,0.001534,0.002029,0.008408,8.856026,-0.020407,0.449655,-0.892969,0.000301,-0.000157,1.764956,-0.000362,-0.000040,0.544872,1.000000,0.000040,-0.000073,0.000014,0.000330,-0.000138,1.762627
1790767592.850147,0.000892,-0.000596,0.000081,0.005373,-0.000480,8.857227,-0.020407,0.449655,-0.892969,0.000301,-0.000157,1.764956,-0.000362,-0.000040,0.544872,1.000000,0.000040,-0.000073,0.000014,0.000330,-0.000138,1.762627
1790767592.854347,0.000653,-0.000527,-0.000954,0.001771,-0.002998,8.862300,-0.020453,0.449767,-0.892912,0.000289,-0.000158,1.781849,-0.000403,-0.000061,0.514734,1.000000,0.000040,-0.000073,0.000014,0.000330,-0.000138,1.762627
1790767592.858360,0.001055,0.000634,-0.000627,-0.001410,0.004262,8.858358,-0.020453,0.449767,-0.892912,0.000289,-0.000158,1.781849,-0.000403,-0.000061,0.514734,1.000000,0.000040,-0.000073,0.000014,0.000330,-0.000138,1.762627
1790767592.862775,0.002036,0.000198,-0.001179,-0.007844,0.004843,8.864500,-0.020453,0.449767,-0.892912,0.000289,-0.000158,1.781849,-0.000403,-0.000061,0.514734,1.000000,0.000047,-0.000070,0.000015,0.000320,-0.000136,1.772921
1790767592.866400,0.001321,0.001223,0.000934,-0.006348,0.004464,8.858833,-0.019886,0.449755,-0.892931,0.000289,-0.000158,1.781849,-0.000403,-0.000061,0.514734,1.000000,0.000047,-0.000070,0.000015,0.000320,-0.000136,1.772921
1790767592.873836,0.000128,0.000074,0.001474,-0.006839,0.001605,8.854577,-0.019886,0.449755,-0.892931,0.000289,-0.000158,1.781849,-0.000403,-0.000061,0.514734,1.000000,0.000047,-0.000070,0.000015,0.000320,-0.000136,1.772921
1790767592.876293,-0.001195,0.000667,-0.000147,0.000144,-0.003864,8.863420,-0.020317,0.449631,-0.892983,0.000289,-0.000158,1.781849,-0.000403,-0.000061,0.514734,1.000000,0.000047,-0.000070,0.000015,0.000320,-0.000136,1.772921
1790767592.878520,-0.000396,0.000330,-0.000288,0.005569,0.000457,8.875765,-0.020317,0.449631,-0.892983,0.000289,-0.000158,1.781849,-0.000403,-0.000061,0.514734,1.000000,0.000047,-0.000070,0.000015,0.000320,-0.000136,1.772921
1790767592.882709,0.000578,-0.001121,0.001975,-0.001214,0.008719,8.876466,-0.020317,0.449631,-0.892983,0.000289,-0.000158,1.781849,-0.000403,-0.000061,0.514734,1.000000,0.000052,-0.000066,0.000016,0.000310,-0.000135,1.782842
1790767592.886440,-0.000976,-0.000070,0.000276,-0.002467,-0.003846,8.876292,-0.020428,0.449930,-0.892830,0.000276,-0.000161,1.797781,-0.000441,-0.000090,0.484887,1.000000,0.000052,-0.000066,0.000016,0.000310,-0.000135,1.782842
1790767592.890545,0.001311,-0.000986,-0.001466,0.004109,0.000851,8.883200,-0.020428,0.449930,-0.892830,0.000276,-0.000161,1.797781,-0.000441,-0.000090,0.484887,1.000000,0.000052,-0.000066,0.000016,0.000310,-0.000135,1.782842
1790767592.897563,-0.000259,0.001161,0.000722,-0.004735,0.000566,8.871448,-0.019605,0.449304,-0.893164,0.000276,-0.000161,1.797781,-0.000441,-0.000090,0.484887,1.000000,0.000052,-0.000066,0.000016,0.000310,-0.000135,1.782842
1790767592.898923,-0.000259,0.001161,0.000722,-0.004735,0.000566,8.871448,-0.019605,0.449304,-0.893164,0.000276,-0.000161,1.797781,-0.000441,-0.000090,0.484887,1.000000,0.000052,-0.000066,0.000016,0.000310,-0.000135,1.782842
1790767592.902596,-0.000168,-0.000297,0.000904,0.005478,-0.002680,8.867257,-0.019605,0.449304,-0.893164,0.000276,-0.000161,1.797781,-0.000441,-0.000090,0.484887,1.000000,0.000055,-0.000062,0.000016,0.000299,-0.000136,1.792392
1790767592.906737,0.000782,0.001353,0.000456,-0.001990,-0.002225,8.891193,-0.020419,0.449593,-0.893000,0.000276,-0.000161,1.797781,-0.000441,-0.000090,0.484887,1.000000,0.000055,-0.000062,0.000016,0.000299,-0.000136,1.792392
1790767592.910368,0.000581,-0.000582,-0.000157,-0.000150,-0.003359,8.898288,-0.020419,0.449593,-0.893000,0.000276,-0.000161,1.797781,-0.000441,-0.000090,0.484887,1.000000,0.000055,-0.000062,0.000016,0.000299,-0.000136,1.792392
1790767592.914479,0.000063,0.000392,-0.000429,0.020852,0.001629,8.899445,-0.020060,0.449607,-0.893001,0.000276,-0.000161,1.797781,-0.000441,-0.000090,0.484887,1.000000,0.000055,-0.000062,0.000016,0.000299,-0.000136,1.792392
1790767592.918527,0.000147,-0.000870,-0.001017,0.008140,0.003210,8.910828,-0.020060,0.449607,-0.893001,0.000261,-0.000164,1.812770,-0.000475,-0.000121,0.455772,1.000000,0.000055,-0.000062,0.000016,0.000299,-0.000136,1.792392
1790767592.922497,0.001215,-0.000471,-0.001638,0.002467,-0.016726,8.908090,-0.020060,0.449607,-0.893001,0.000261,-0.000164,1.812770,-0.000475,-0.000121,0.455772,1.000000,0.000056,-0.000056,0.000016,0.000286,-0.000138,1.801579
1790767592.926993,0.000928,-0.000439,-0.000078,-0.006866,0.002245,8.908918,-0.020074,0.449673,-0.892968,0.000261,-0.000164,1.812770,-0.000475,-0.000121,0.455772,1.000000,0.000056,-0.000056,0.000016,0.000286,-0.000138,1.801579
1790767592.930764,-0.000631,0.001211,0.001667,0.007965,0.000682,8.915144,-0.020074,0.449673,-0.892968,0.000261,-0.000164,1.812770,-0.000475,-0.000121,0.455772,1.000000,0.000056,-0.000056,0.000016,0.000286,-0.000138,1.801579
1790767592.934716,0.000824,0.001379,0.001282,-0.000997,0.005790,8.915332,-0.020207,0.449475,-0.893064,0.000261,-0.000164,1.812770,-0.000475,-0.000121,0.455772,1.000000,0.000056,-0.000056,0.000016,0.000286,-0.000138,1.801579
1790767592.939155,-0.000179,-0.000107,0.000542,-0.002453,0.003464,8.940362,-0.020207,0.449475,-0.893064,0.000261,-0.000164,1.812770,-0.000475,-0.000121,0.455772,1.000000,0.000056,-0.000056,0.000016,0.000286,-0.000138,1.801579
1790767592.942569,-0.000027,-0.000559,-0.000652,-0.000219,0.015814,8.955036,-0.020207,0.449475,-0.893064,0.000261,-0.000164,1.812770,-0.000475,-0.000121,0.455772,1.000000,0.000056,-0.000048,0.000017,0.000273,-0.000140,1.810413
1790767592.946302,-0.000511,0.001469,-0.000852,0.010024,0.005693,8.955817,-0.020221,0.449551,-0.893026,0.000261,-0.000164,1.812770,-0.000475,-0.000121,0.455772,1.000000,0.000056,-0.000048,0.000017,0.000273,-0.000140,1.810413
1790767592.950100,-0.001969,0.001360,-0.000074,-0.005077,-0.010561,8.962861,-0.020221,0.449551,-0.893026,0.000261,-0.000164,1.812770,-0.000475,-0.000121,0.455772,1.000000,0.000056,-0.000048,0.000017,0.000273,-0.000140,1.810413
1790767592.954281,0.000778,0.000822,-0.000276,0.000403,0.004691,8.967964,-0.020239,0.449419,-0.893092,0.000243,-0.000169,1.828550,-0.000507,-0.000157,0.424798,1.000000,0.000056,-0.000048,0.000017,0.000273,-0.000140,1.810413
1790767592.958955,-0.000350,-0.000005,0.000523,0.001954,-0.020541,8.963851,-0.020239,0.449419,-0.893092,0.000243,-0.000169,1.828550,-0.000507,-0.000157,0.424798,1.000000,0.000056,-0.000048,0.000017,0.000273,-0.000140,1.810413
1790767592.962409,-0.001941,0.001228,0.000090,-0.004539,0.009666,8.955883,-0.020239,0.449419,-0.893092,0.000243,-0.000169,1.828550,-0.000507,-0.000157,0.424798,1.000000,0.000054,-0.000038,0.000017,0.000258,-0.000145,1.818908
1790767592.966301,-0.000890,0.000855,-0.000491,0.002104,-0.006768,8.950372,-0.020139,0.449611,-0.892997,0.000243,-0.000169,1.828550,-0.000507,-0.000157,0.424798,1.000000,0.000054,-0.000038,0.000017,0.000258,-0.000145,1.818908
1790767592.970292,-0.000890,0.002451,0.000619,-0.006946,0.000115,8.969273,-0.020139,0.449611,-0.892997,0.000243,-0.000169,1.828550,-0.000507,-0.000157,0.424798,1.000000,0.000054,-0.000038,0.000017,0.000258,-0.000145,1.818908
1790767592.975323,0.000122,0.001223,-0.001007,0.004693,-0.009108,8.992243,-0.020405,0.449662,-0.892966,0.000243,-0.000169,1.828550,-0.000507,-0.000157,0.424798,1.000000,0.000054,-0.000038,0.000017,0.000258,-0.000145,1.818908
1790767592.978514,0.000545,0.000866,-0.000315,0.002869,-0.004191,8.987243,-0.020405,0.449662,-0.892966,0.000243,-0.000169,1.828550,-0.000507,-0.000157,0.424798,1.000000,0.000054,-0.000038,0.000017,0.000258,-0.000145,1.818908
1790767592.982342,-0.000509,0.000869,-0.000122,0.002777,0.007638,8.996890,-0.020405,0.449662,-0.892966,0.000243,-0.000169,1.828550,-0.000507,-0.000157,0.424798,1.000000,0.000053,-0.000030,0.000018,0.000244,-0.000149,1.827072
1790767592.985912,-0.000309,0.000592,0.000684,0.002476,0.005446,8.982900,-0.020185,0.449392,-0.893106,0.000227,-0.000175,1.841666,-0.000525,-0.000187,0.398487,1.000000,0.000053,-0.000030,0.000018,0.000244,-0.000149,1.827072
1790767592.990534,0.000046,0.000782,-0.001372,-0.001659,-0.007092,8.990565,-0.020185,0.449392,-0.893106,0.000227,-0.000175,1.841666,-0.000525,-0.000187,0.398487,1.000000,0.000053,-0.000030,0.000018,0.000244,-0.000149,1.827072
1790767592.994761,0.000070,0.000552,-0.000284,-0.005511,0.000179,8.975237,-0.020248,0.449727,-0.892936,0.000227,-0.000175,1.841666,-0.000525,-0.000187,0.398487,1.000000,0.000053,-0.000030,0.000018,0.000244,-0.000149,1.827072
1790767592.998510,-0.000957,0.001022,-0.000462,0.006288,-0.002792,8.981739,-0.020248,0.449727,-0.892936,0.000227,-0.000175,1.841666,-0.000525,-0.000187,0.398487,1.000000,0.000053,-0.000030,0.000018,0.000244,-0.000149,1.827072
1790767593.002291,0.001030,-0.000107,0.000115,-0.012669,-0.002304,8.993106,-0.020248,0.449727,-0.892936,0.000227,-0.000175,1.841666,-0.000525,-0.000187,0.398487,1.000000,0.000052,-0.000024,0.000018,0.000230,-0.000153,1.834912
1790767593.006118,-0.001479,0.000102,0.000298,-0.004867,-0.003116,9.003898,-0.020265,0.449678,-0.892961,0.000227,-0.000175,1.841666,-0.000525,-0.000187,0.398487,1.000000,0.000052,-0.000024,0.000018,0.000230,-0.000153,1.834912
1790767593.010430,-0.000147,0.001705,0.000528,-0.015266,-0.017124,9.015683,-0.020265,0.449678,-0.892961,0.000227,-0.000175,1.841666,-0.000525,-0.000187,0.398487,1.000000,0.000052,-0.000024,0.000018,0.000230,-0.000153,1.834912
1790767593.014540,0.000358,-0.000423,0.002949,-0.004560,0.006869,9.024625,-0.020277,0.449473,-0.893064,0.000227,-0.000175,1.841666,-0.000525,-0.000187,0.398487,1.000000,0.000052,-0.000024,0.000018,0.000230,-0.000153,1.834912
1790767593.018059,-0.000191,0.000246,0.000124,-0.003861,-0.000365,9.021489,-0.020277,0.449473,-0.893064,0.000210,-0.000181,1.853955,-0.000537,-0.000217,0.372969,1.000000,0.000052,-0.000024,0.000018,0.000230,-0.000153,1.834912
1790767593.022546,0.001566,0.001385,0.000020,0.008963,-0.007909,9.000863,-0.020277,0.449473,-0.893064,0.000210,-0.000181,1.853955,-0.000537,-0.000217,0.372969,1.000000,0.000052,-0.000018,0.000019,0.000217,-0.000157,1.842434
1790767593.026129,0.001880,0.001084,0.000069,-0.004098,-0.000985,9.012563,-0.020214,0.449988,-0.892806,0.000210,-0.000181,1.853955,-0.000537,-0.000217,0.372969,1.000000,0.000052,-0.000018,0.000019,0.000217,-0.000157,1.842434
1790767593.030291,-0.001614,0.001145,0.000116,0.008445,-0.004901,9.010660,-0.020214,0.449988,-0.892806,0.000210,-0.000181,1.853955,-0.000537,-0.000217,0.372969,1.000000,0.000052,-0.000018,0.000019,0.000217,-0.000157,1.842434
1790767593.034894,0.000817,0.000959,-0.000667,0.000262,-0.004704,9.021085,-0.020100,0.449596,-0.893006,0.000210,-0.000181,1.853955,-0.000537,-0.000217,0.372969,1.000000,0.000052,-0.000018,0.000019,0.000217,-0.000157,1.842434
1790767593.038740,-0.000833,0.002057,0.000633,-0.002688,0.004294,9.028672,-0.020100,0.449596,-0.893006,0.000210,-0.000181,1.853955,-0.000537,-0.000217,0.372969,1.000000,0.000052,-0.000018,0.000019,0.000217,-0.000157,1.842434
1790767593.043267,-0.000054,-0.000682,-0.000062,0.003714,0.004814,9.025382,-0.020100,0.449596,-0.893006,0.000210,-0.000181,1.853955,-0.000537,-0.000217,0.372969,1.000000,0.000052,-0.000013,0.000019,0.000204,-0.000162,1.849642
1790767593.046322,0.000911,-0.001115,-0.000006,-0.000058,-0.000728,9.033132,-0.020267,0.449537,-0.893032,0.000210,-0.000181,1.853955,-0.000537,-0.000217,0.372969,1.000000,0.000052,-0.000013,0.000019,0.000204,-0.000162,1.849642
1790767593.050309,-0.000562,0.000002,-0.000137,0.003509,0.006324,9.040230,-0.020267,0.449537,-0.893032,0.000192,-0.000189,1.865439,-0.000544,-0.000246,0.348095,1.000000,0.000052,-0.000013,0.000019,0.000204,-0.000162,1.849642
1790767593.054654,0.000130,0.000341,0.000294,-0.002969,-0.006217,9.022993,-0.020395,0.449496,-0.893049,0.000192,-0.000189,1.865439,-0.000544,-0.000246,0.348095,1.000000,0.000052,-0.000013,0.000019,0.000204,-0.000162,1.849642
1790767593.058556,-0.000014,0.001552,0.001117,-0.007573,-0.000978,9.026830,-0.020395,0.449496,-0.893049,0.000192,-0.000189,1.865439,-0.000544,-0.000246,0.348095,1.000000,0.000052,-0.000013,0.000019,0.000204,-0.000162,1.849642
1790767593.062195,-0.000337,0.000922,-0.001718,-0.007620,0.002349,9.027554,-0.020395,0.449496,-0.893049,0.000192,-0.000189,1.865439,-0.000544,-0.000246,0.348095,1.000000,0.000052,-0.000010,0.000019,0.000191,-0.000167,1.856542
1790767593.066413,-0.000137,0.000480,0.000887,-0.002721,0.000684,9.031077,-0.020283,0.449766,-0.892916,0.000192,-0.000189,1.865439,-0.000544,-0.000246,0.348095,1.000000,0.000052,-0.000010,0.000019,0.000191,-0.000167,1.856542
1790767593.070501,-0.000040,0.000405,0.000241,0.002563,0.010283,9.048270,-0.020283,0.449766,-0.892916,0.000192,-0.000189,1.865439,-0.000544,-0.000246,0.348095,1.000000,0.000052,-0.000010,0.000019,0.000191,-0.000167,1.856542
1790767593.074604,-0.000542,0.000995,-0.001812,0.004330,0.003574,9.059748,-0.019840,0.449396,-0.893113,0.000192,-0.000189,1.865439,-0.000544,-0.000246,0.348095,1.000000,0.000052,-0.000010,0.000019,0.000191,-0.000167,1.856542
1790767593.078206,-0.000243,0.001301,0.001041,-0.003775,0.009074,9.053851,-0.019840,0.449396,-0.893113,0.000192,-0.000189,1.865439,-0.000544,-0.000246,0.348095,1.000000,0.000052,-0.000010,0.000019,0.000191,-0.000167,1.856542
1790767593.082264,-0.000646,-0.000967,0.000110,0.003072,0.003875,9.071368,-0.019840,0.449396,-0.893113,0.000192,-0.000189,1.865439,-0.000544,-0.000246,0.348095,1.000000,0.000052,-0.000007,0.000019,0.000179,-0.000172,1.863139
1790767593.086870,-0.001090,-0.000394,-0.000140,0.007363,0.006690,9.066400,-0.020276,0.449733,-0.892933,0.000173,-0.000198,1.877423,-0.000548,-0.000279,0.320966,1.000000,0.000052,-0.000007,0.000019,0.000179,-0.000172,1.863139
1790767593.091494,0.000305,0.000274,-0.000400,-0.001229,-0.003379,9.057727,-0.020276,0.449733,-0.892933,0.000173,-0.000198,1.877423,-0.000548,-0.000279,0.320966,1.000000,0.000052,-0.000007,0.000019,0.000179,-0.000172,1.863139
1790767593.094582,-0.001830,0.001010,-0.000168,-0.006884,0.010987,9.059346,-0.020076,0.449623,-0.892993,0.000173,-0.000198,1.877423,-0.000548,-0.000279,0.320966,1.000000,0.000052,-0.000007,0.000019,0.000179,-0.000172,1.863139
1790767593.098318,0.000083,0.000161,0.001521,-0.004733,-0.010479,9.079430,-0.020076,0.449623,-0.892993,0.000173,-0.000198,1.877423,-0.000548,-0.000279,0.320966,1.000000,0.000052,-0.000007,0.000019,0.000179,-0.000172,1.863139
1790767593.102283,0.000771,0.001123,-0.000720,0.011580,0.003517,9.087029,-0.020076,0.449623,-0.892993,0.000173,-0.000198,1.877423,-0.000548,-0.000279,0.320966,1.000000,0.000052,-0.000005,0.000019,0.000167,-0.000178,1.869442
1790767593.106720,0.000473,-0.000480,-0.001259,0.008314,0.002117,9.095113,-0.020183,0.449905,-0.892848,0.000173,-0.000198,1.877423,-0.000548,-0.000279,0.320966,1.000000,0.000052,-0.000005,0.000019,0.000167,-0.000178,1.869442
1790767593.110264,-0.000351,0.000588,-0.000239,-0.003715,-0.003228,9.106114,-0.020183,0.449905,-0.892848,0.000173,-0.000198,1.877423,-0.000548,-0.000279,0.320966,1.000000,0.000052,-0.000005,0.000019,0.000167,-0.000178,1.869442
1790767593.114347,0.000013,0.000844,-0.000915,0.002160,0.009132,9.107306,-0.020217,0.449612,-0.892995,0.000173,-0.000198,1.877423,-0.000548,-0.000279,0.320966,1.000000,0.000052,-0.000005,0.000019,0.000167,-0.000178,1.869442
1790767593.118189,0.000575,0.000684,0.000321,-0.006399,-0.005018,9.118002,-0.020217,0.449612,-0.892995,0.000155,-0.000208,1.887281,-0.000549,-0.000308,0.298274,1.000000,0.000052,-0.000005,0.000019,0.000167,-0.000178,1.869442
1790767593.122475,-0.001030,-0.000804,0.000188,0.004925,-0.004517,9.096264,-0.020217,0.449612,-0.892995,0.000155,-0.000208,1.887281,-0.000549,-0.000308,0.298274,1.000000,0.000053,-0.000004,0.000019,0.000155,-0.000183,1.875463
1790767593.126653,-0.000260,0.000360,0.000818,0.011820,-0.002822,9.108664,-0.020082,0.449628,-0.892990,0.000155,-0.000208,1.887281,-0.000549,-0.000308,0.298274,1.000000,0.000053,-0.000004,0.000019,0.000155,-0.000183,1.875463
1790767593.130558,-0.001314,0.001464,-0.001803,-0.007767,-0.001231,9.123896,-0.020082,0.449628,-0.892990,0.000155,-0.000208,1.887281,-0.000549,-0.000308,0.298274,1.000000,0.000053,-0.000004,0.000019,0.000155,-0.000183,1.875463
1790767593.134691,0.000389,0.000132,0.000801,0.003705,-0.000229,9.117487,-0.020005,0.449613,-0.892999,0.000155,-0.000208,1.887281,-0.000549,-0.000308,0.298274,1.000000,0.000053,-0.000004,0.000019,0.000155,-0.000183,1.875463
1790767593.138265,-0.000539,-0.000201,-0.001125,0.003510,-0.009293,9.122858,-0.020005,0.449613,-0.892999,0.000155,-0.000208,1.887281,-0.000549,-0.000308,0.298274,1.000000,0.000053,-0.000004,0.000019,0.000155,-0.000183,1.875463
1790767593.142866,-0.002251,-0.000493,-0.000236,0.009701,0.002142,9.125991,-0.020005,0.449613,-0.892999,0.000155,-0.000208,1.887281,-0.000549,-0.000308,0.298274,1.000000,0.000054,-0.000003,0.000019,0.000144,-0.000189,1.881210
1790767593.146927,-0.000525,-0.000891,-0.000653,0.017431,0.003087,9.137880,-0.020140,0.449512,-0.893047,0.000155,-0.000208,1.887281,-0.000549,-0.000308,0.298274,1.000000,0.000054,-0.000003,0.000019,0.000144,-0.000189,1.881210
1790767593.150404,-0.000117,-0.000200,-0.000151,0.003410,0.008765,9.150232,-0.020140,0.449512,-0.893047,0.000138,-0.000218,1.896434,-0.000549,-0.000338,0.276670,1.000000,0.000054,-0.000003,0.000019,0.000144,-0.000189,1.881210
1790767593.155767,0.001036,-0.000362,0.000184,0.000850,-0.006370,9.140300,-0.020395,0.449665,-0.892965,0.000138,-0.000218,1.896434,-0.000549,-0.000338,0.276670,1.000000,0.000054,-0.000003,0.000019,0.000144,-0.000189,1.881210
1790767593.158983,0.001201,-0.001918,0.001482,0.001461,0.007387,9.133411,-0.020395,0.449665,-0.892965,0.000138,-0.000218,1.896434,-0.000549,-0.000338,0.276670,1.000000,0.000054,-0.000003,0.000019,0.000144,-0.000189,1.881210
1790767593.162792,0.000097,0.001043,0.000539,0.000372,-0.011924,9.137850,-0.020395,0.449665,-0.892965,0.000138,-0.000218,1.896434,-0.000549,-0.000338,0.276670,1.000000,0.000056,-0.000003,0.000020,0.000133,-0.000195,1.886690
1790767593.166538,0.001972,-0.001743,-0.000125,0.000308,-0.006446,9.148614,-0.020584,0.449908,-0.892838,0.000138,-0.000218,1.896434,-0.000549,-0.000338,0.276670,1.000000,0.000056,-0.000003,0.000020,0.000133,-0.000195,1.886690
1790767593.170225,-0.000720,-0.000754,0.000156,-0.010626,-0.003511,9.142438,-0.020584,0.449908,-0.892838,0.000138,-0.000218,1.896434,-0.000549,-0.000338,0.276670,1.000000,0.000056,-0.000003,0.000020,0.000133,-0.000195,1.886690
1790767593.174877,-0.000023,-0.000211,-0.000455,0.000116,-0.000607,9.155860,-0.020001,0.449468,-0.893072,0.000138,-0.000218,1.896434,-0.000549,-0.000338,0.276670,1.000000,0.000056,-0.000003,0.000020,0.000133,-0.000195,1.886690
1790767593.178407,-0.000574,0.000217,-0.000779,0.001414,0.012452,9.153651,-0.020001,0.449468,-0.893072,0.000138,-0.000218,1.896434,-0.000549,-0.000338,0.276670,1.000000,0.000056,-0.000003,0.000020,0.000133,-0.000195,1.886690
1790767593.183247,-0.000370,-0.001460,0.000759,0.003884,0.005347,9.148678,-0.020001,0.449468,-0.893072,0.000120,-0.000229,1.904909,-0.000549,-0.000370,0.255771,1.000000,0.000057,-0.000001,0.000020,0.000121,-0.000202,1.891909
1790767593.186649,-0.000242,0.001883,-0.001451,0.009477,0.002363,9.151023,-0.020293,0.449389,-0.893106,0.000120,-0.000229,1.904909,-0.000549,-0.000370,0.255771,1.000000,0.000057,-0.000001,0.000020,0.000121,-0.000202,1.891909
1790767593.191742,-0.001461,0.000329,0.000770,0.001989,-0.010231,9.150984,-0.020293,0.449389,-0.893106,0.000120,-0.000229,1.904909,-0.000549,-0.000370,0.255771,1.000000,0.000057,-0.000001,0.000020,0.000121,-0.000202,1.891909
1790767593.195018,-0.000789,-0.000947,0.001211,0.000105,-0.001940,9.166898,-0.020012,0.449733,-0.892939,0.000120,-0.000229,1.904909,-0.000549,-0.000370,0.255771,1.000000,0.000057,-0.000001,0.000020,0.000121,-0.000202,1.891909
1790767593.198568,0.000347,-0.000444,0.000124,0.008616,0.007899,9.167769,-0.020012,0.449733,-0.892939,0.000120,-0.000229,1.904909,-0.000549,-0.000370,0.255771,1.000000,0.000057,-0.000001,0.000020,0.000121,-0.000202,1.891909
1790767593.202632,0.000204,0.000685,-0.000237,0.001211,0.005453,9.164884,-0.020012,0.449733,-0.892939,0.000120,-0.000229,1.904909,-0.000549,-0.000370,0.255771,1.000000,0.000057,0.000002,0.000020,0.000109,-0.000209,1.896871
1790767593.206753,0.000548,0.000275,0.001323,0.002155,-0.000257,9.181202,-0.019965,0.449406,-0.893105,0.000120,-0.000229,1.904909,-0.000549,-0.000370,0.255771,1.000000,0.000057,0.000002,0.000020,0.000109,-0.000209,1.896871
1790767593.210386,0.000829,0.001690,-0.001339,-0.005151,-0.003617,9.167484,-0.019965,0.449406,-0.893105,0.000120,-0.000229,1.904909,-0.000549,-0.000370,0.255771,1.000000,0.000057,0.000002,0.000020,0.000109,-0.000209,1.896871
1790767593.216459,0.000517,0.000019,-0.001642,0.001743,0.000089,9.171398,-0.020127,0.449669,-0.892968,0.000120,-0.000229,1.904909,-0.000549,-0.000370,0.255771,1.000000,0.000057,0.000002,0.000020,0.000109,-0.000209,1.896871
1790767593.218855,0.000566,0.000330,-0.000611,-0.005246,0.007795,9.187975,-0.020127,0.449669,-0.892968,0.000101,-0.000244,1.913660,-0.000546,-0.000407,0.233082,1.000000,0.000057,0.000002,0.000020,0.000109,-0.000209,1.896871
1790767593.222910,0.000167,0.000933,-0.000358,0.002615,0.005116,9.185226,-0.020127,0.449669,-0.892968,0.000101,-0.000244,1.913660,-0.000546,-0.000407,0.233082,1.000000,0.000058,0.000003,0.000020,0.000097,-0.000217,1.901582
